{
    "client": {
        "type": "sona",
        "experiment_id": 1505,
        "credit_token": "b20092f9d3b34a378ee654bcc50710ea",
        "survey_code": "31453",
        "sid": "sona-31453",
        "window": {
            "width": 1438,
            "height": 697
        },
        "screen": {
            "width": 1440,
            "height": 900
        },
        "userAgent": "Mozilla\/5.0 (Macintosh; Intel Mac OS X 10_15_4) AppleWebKit\/537.36 (KHTML, like Gecko) Chrome\/85.0.4183.121 Safari\/537.36",
        "score": 0,
        "bonus": 0
    },
    "expt": {
        "saveURL": "submit.simple.php",
        "trials": 100,
        "practiceTrials": 4,
        "diceSides": 10,
        "roles": [
            "bullshitter",
            "bullshitDetector"
        ],
        "roleFirst": "bullshitDetector",
        "allTrialProbs": [
            0.2,
            0.5,
            0.8
        ],
        "occlude": "computer",
        "catchTrials": [
            58,
            27,
            88,
            23,
            19,
            8,
            15,
            81,
            30,
            31,
            59,
            93,
            17,
            53,
            50
        ],
        "stat": {
            "playerTotalScore": 397,
            "oppTotalScore": 313,
            "truth": 31,
            "truth_noBS": 10,
            "truth_BS": 21,
            "lie": 19,
            "lie_noBS": 10,
            "lie_BS": 9,
            "noBS": 38,
            "noBS_truth": 19,
            "noBS_lie": 19,
            "BS": 12,
            "BS_truth": 5,
            "BS_lie": 7
        },
        "sona": {
            "experiment_id": 1505,
            "credit_token": "b20092f9d3b34a378ee654bcc50710ea"
        },
        "debug": false
    },
    "trials": [
        {
            "exptPart": "practice",
            "trialNumber": 1,
            "roleCurrent": "bullshitter",
            "diceSides": 10,
            "trueRoll": 0,
            "reportedRoll": 5,
            "compLie": -1,
            "compUnifLie": false,
            "compDetect": 0.5,
            "callBS": false,
            "playerTrialScore": 5,
            "oppTrialScore": 5,
            "playerTotalScore": 5,
            "oppTotalScore": 5,
            "waitTime": 2162.8516636988584,
            "responseTime": 1601933398546,
            "catchQuestion": "",
            "catchKey": -1,
            "catchResponse": -1,
            "catchResponseTime": -1,
            "trialTime": 17702
        },
        {
            "exptPart": "practice",
            "trialNumber": 2,
            "roleCurrent": "bullshitDetector",
            "diceSides": 10,
            "trueRoll": 6,
            "reportedRoll": 6,
            "compLie": 4,
            "compUnifLie": false,
            "compDetect": -1,
            "callBS": true,
            "playerTrialScore": -1,
            "oppTrialScore": 6,
            "playerTotalScore": 4,
            "oppTotalScore": 11,
            "waitTime": 5573.704625402348,
            "responseTime": 5041,
            "catchQuestion": "",
            "catchKey": -1,
            "catchResponse": -1,
            "catchResponseTime": -1,
            "trialTime": 16460
        },
        {
            "exptPart": "practice",
            "trialNumber": 3,
            "roleCurrent": "bullshitter",
            "diceSides": 10,
            "trueRoll": 4,
            "reportedRoll": 4,
            "compLie": -1,
            "compUnifLie": false,
            "compDetect": 0.4090909090909091,
            "callBS": false,
            "playerTrialScore": 4,
            "oppTrialScore": 6,
            "playerTotalScore": 8,
            "oppTotalScore": 17,
            "waitTime": 3176.516401435857,
            "responseTime": 17218,
            "catchQuestion": "What number did you roll?",
            "catchKey": 4,
            "catchResponse": 4,
            "catchResponseTime": 4454,
            "trialTime": 19307
        },
        {
            "exptPart": "practice",
            "trialNumber": 4,
            "roleCurrent": "bullshitDetector",
            "diceSides": 10,
            "trueRoll": 10,
            "reportedRoll": 10,
            "compLie": 4,
            "compUnifLie": false,
            "compDetect": -1,
            "callBS": true,
            "playerTrialScore": -5,
            "oppTrialScore": 10,
            "playerTotalScore": 3,
            "oppTotalScore": 27,
            "waitTime": 5224.85471503561,
            "responseTime": 3951,
            "catchQuestion": "What number did your opponent report rolling?",
            "catchKey": 10,
            "catchResponse": 10,
            "catchResponseTime": 4041,
            "trialTime": 17973
        },
        {
            "exptPart": "trial",
            "trialNumber": 1,
            "roleCurrent": "bullshitDetector",
            "diceSides": 10,
            "trueRoll": 6,
            "reportedRoll": 6,
            "compLie": 4,
            "compUnifLie": false,
            "compDetect": -1,
            "callBS": false,
            "playerTrialScore": 4,
            "oppTrialScore": 6,
            "playerTotalScore": 4,
            "oppTotalScore": 6,
            "waitTime": 7329.490047083959,
            "responseTime": 1722,
            "catchQuestion": "What number did your opponent report rolling?",
            "catchKey": -1,
            "catchResponse": -1,
            "catchResponseTime": -1,
            "trialTime": 11768
        },
        {
            "exptPart": "trial",
            "trialNumber": 2,
            "roleCurrent": "bullshitter",
            "diceSides": 10,
            "trueRoll": 3,
            "reportedRoll": 8,
            "compLie": -1,
            "compUnifLie": false,
            "compDetect": 0.7727272727272727,
            "callBS": true,
            "playerTrialScore": -5,
            "oppTrialScore": 5,
            "playerTotalScore": -1,
            "oppTotalScore": 11,
            "waitTime": 2170.365305005032,
            "responseTime": 11271,
            "catchQuestion": "What number did your opponent report rolling?",
            "catchKey": -1,
            "catchResponse": -1,
            "catchResponseTime": -1,
            "trialTime": 10978
        },
        {
            "exptPart": "trial",
            "trialNumber": 3,
            "roleCurrent": "bullshitDetector",
            "diceSides": 10,
            "trueRoll": 2,
            "reportedRoll": 5,
            "compLie": 5,
            "compUnifLie": false,
            "compDetect": -1,
            "callBS": false,
            "playerTrialScore": 5,
            "oppTrialScore": 5,
            "playerTotalScore": 4,
            "oppTotalScore": 16,
            "waitTime": 6618.9443840603135,
            "responseTime": 7848,
            "catchQuestion": "What number did your opponent report rolling?",
            "catchKey": -1,
            "catchResponse": -1,
            "catchResponseTime": -1,
            "trialTime": 16508
        },
        {
            "exptPart": "trial",
            "trialNumber": 4,
            "roleCurrent": "bullshitter",
            "diceSides": 10,
            "trueRoll": 4,
            "reportedRoll": 4,
            "compLie": -1,
            "compUnifLie": false,
            "compDetect": 0.4090909090909091,
            "callBS": false,
            "playerTrialScore": 4,
            "oppTrialScore": 6,
            "playerTotalScore": 8,
            "oppTotalScore": 22,
            "waitTime": 2365.2428179890285,
            "responseTime": 16629,
            "catchQuestion": "What number did your opponent report rolling?",
            "catchKey": -1,
            "catchResponse": -1,
            "catchResponseTime": -1,
            "trialTime": 10861
        },
        {
            "exptPart": "trial",
            "trialNumber": 5,
            "roleCurrent": "bullshitDetector",
            "diceSides": 10,
            "trueRoll": 2,
            "reportedRoll": 2,
            "compLie": 1,
            "compUnifLie": false,
            "compDetect": -1,
            "callBS": false,
            "playerTrialScore": 8,
            "oppTrialScore": 2,
            "playerTotalScore": 16,
            "oppTotalScore": 24,
            "waitTime": 5880.6319641465725,
            "responseTime": 4155,
            "catchQuestion": "What number did your opponent report rolling?",
            "catchKey": -1,
            "catchResponse": -1,
            "catchResponseTime": -1,
            "trialTime": 12566
        },
        {
            "exptPart": "trial",
            "trialNumber": 6,
            "roleCurrent": "bullshitter",
            "diceSides": 10,
            "trueRoll": 8,
            "reportedRoll": 8,
            "compLie": -1,
            "compUnifLie": false,
            "compDetect": 0.7727272727272727,
            "callBS": false,
            "playerTrialScore": 8,
            "oppTrialScore": 2,
            "playerTotalScore": 24,
            "oppTotalScore": 26,
            "waitTime": 2515.4286490547493,
            "responseTime": 13022,
            "catchQuestion": "What number did your opponent report rolling?",
            "catchKey": -1,
            "catchResponse": -1,
            "catchResponseTime": -1,
            "trialTime": 10718
        },
        {
            "exptPart": "trial",
            "trialNumber": 7,
            "roleCurrent": "bullshitDetector",
            "diceSides": 10,
            "trueRoll": 8,
            "reportedRoll": 8,
            "compLie": 5,
            "compUnifLie": false,
            "compDetect": -1,
            "callBS": true,
            "playerTrialScore": -3,
            "oppTrialScore": 8,
            "playerTotalScore": 21,
            "oppTotalScore": 34,
            "waitTime": 5685.928702321181,
            "responseTime": 3482,
            "catchQuestion": "What number did your opponent report rolling?",
            "catchKey": -1,
            "catchResponse": -1,
            "catchResponseTime": -1,
            "trialTime": 10932
        },
        {
            "exptPart": "trial",
            "trialNumber": 8,
            "roleCurrent": "bullshitter",
            "diceSides": 10,
            "trueRoll": 4,
            "reportedRoll": 4,
            "compLie": -1,
            "compUnifLie": false,
            "compDetect": 0.4090909090909091,
            "callBS": false,
            "playerTrialScore": 4,
            "oppTrialScore": 6,
            "playerTotalScore": 25,
            "oppTotalScore": 40,
            "waitTime": 2261.8314803421094,
            "responseTime": 14352,
            "catchQuestion": "What number did your opponent report rolling?",
            "catchKey": -1,
            "catchResponse": -1,
            "catchResponseTime": -1,
            "trialTime": 13352
        },
        {
            "exptPart": "trial",
            "trialNumber": 9,
            "roleCurrent": "bullshitDetector",
            "diceSides": 10,
            "trueRoll": 9,
            "reportedRoll": 9,
            "compLie": 6,
            "compUnifLie": false,
            "compDetect": -1,
            "callBS": false,
            "playerTrialScore": 1,
            "oppTrialScore": 9,
            "playerTotalScore": 26,
            "oppTotalScore": 49,
            "waitTime": 5610.370246960067,
            "responseTime": 5845,
            "catchQuestion": "What number did your opponent report rolling?",
            "catchKey": 9,
            "catchResponse": 9,
            "catchResponseTime": 4696,
            "trialTime": 22839
        },
        {
            "exptPart": "trial",
            "trialNumber": 10,
            "roleCurrent": "bullshitter",
            "diceSides": 10,
            "trueRoll": 7,
            "reportedRoll": 7,
            "compLie": -1,
            "compUnifLie": false,
            "compDetect": 0.6818181818181818,
            "callBS": true,
            "playerTrialScore": 7,
            "oppTrialScore": -2,
            "playerTotalScore": 33,
            "oppTotalScore": 47,
            "waitTime": 2806.497121374836,
            "responseTime": 23871,
            "catchQuestion": "What number did your opponent report rolling?",
            "catchKey": -1,
            "catchResponse": -1,
            "catchResponseTime": -1,
            "trialTime": 12142
        },
        {
            "exptPart": "trial",
            "trialNumber": 11,
            "roleCurrent": "bullshitDetector",
            "diceSides": 10,
            "trueRoll": 3,
            "reportedRoll": 6,
            "compLie": 6,
            "compUnifLie": false,
            "compDetect": -1,
            "callBS": false,
            "playerTrialScore": 4,
            "oppTrialScore": 6,
            "playerTotalScore": 37,
            "oppTotalScore": 53,
            "waitTime": 5387.5642919199545,
            "responseTime": 1911,
            "catchQuestion": "What number did your opponent report rolling?",
            "catchKey": -1,
            "catchResponse": -1,
            "catchResponseTime": -1,
            "trialTime": 9081
        },
        {
            "exptPart": "trial",
            "trialNumber": 12,
            "roleCurrent": "bullshitter",
            "diceSides": 10,
            "trueRoll": 3,
            "reportedRoll": 8,
            "compLie": -1,
            "compUnifLie": false,
            "compDetect": 0.7727272727272727,
            "callBS": true,
            "playerTrialScore": -5,
            "oppTrialScore": 5,
            "playerTotalScore": 32,
            "oppTotalScore": 58,
            "waitTime": 2554.6104357053036,
            "responseTime": 12511,
            "catchQuestion": "What number did your opponent report rolling?",
            "catchKey": -1,
            "catchResponse": -1,
            "catchResponseTime": -1,
            "trialTime": 12951
        },
        {
            "exptPart": "trial",
            "trialNumber": 13,
            "roleCurrent": "bullshitDetector",
            "diceSides": 10,
            "trueRoll": 0,
            "reportedRoll": 6,
            "compLie": -1,
            "compUnifLie": true,
            "compDetect": -1,
            "callBS": true,
            "playerTrialScore": 5,
            "oppTrialScore": -5,
            "playerTotalScore": 37,
            "oppTotalScore": 53,
            "waitTime": 5692.708641643459,
            "responseTime": 7627,
            "catchQuestion": "What number did your opponent report rolling?",
            "catchKey": -1,
            "catchResponse": -1,
            "catchResponseTime": -1,
            "trialTime": 15179
        },
        {
            "exptPart": "trial",
            "trialNumber": 14,
            "roleCurrent": "bullshitter",
            "diceSides": 10,
            "trueRoll": 10,
            "reportedRoll": 10,
            "compLie": -1,
            "compUnifLie": false,
            "compDetect": 0.9545454545454546,
            "callBS": true,
            "playerTrialScore": 10,
            "oppTrialScore": -5,
            "playerTotalScore": 47,
            "oppTotalScore": 48,
            "waitTime": 2459.458596603654,
            "responseTime": 19063,
            "catchQuestion": "What number did your opponent report rolling?",
            "catchKey": -1,
            "catchResponse": -1,
            "catchResponseTime": -1,
            "trialTime": 14166
        },
        {
            "exptPart": "trial",
            "trialNumber": 15,
            "roleCurrent": "bullshitDetector",
            "diceSides": 10,
            "trueRoll": 6,
            "reportedRoll": 6,
            "compLie": 0,
            "compUnifLie": false,
            "compDetect": -1,
            "callBS": false,
            "playerTrialScore": 4,
            "oppTrialScore": 6,
            "playerTotalScore": 51,
            "oppTotalScore": 54,
            "waitTime": 7169.330157194864,
            "responseTime": 1617,
            "catchQuestion": "What number did your opponent report rolling?",
            "catchKey": -1,
            "catchResponse": -1,
            "catchResponseTime": -1,
            "trialTime": 10844
        },
        {
            "exptPart": "trial",
            "trialNumber": 16,
            "roleCurrent": "bullshitter",
            "diceSides": 10,
            "trueRoll": 9,
            "reportedRoll": 9,
            "compLie": -1,
            "compUnifLie": false,
            "compDetect": 0.8636363636363636,
            "callBS": true,
            "playerTrialScore": 9,
            "oppTrialScore": -4,
            "playerTotalScore": 60,
            "oppTotalScore": 50,
            "waitTime": 2268.7308385014385,
            "responseTime": 9257,
            "catchQuestion": "What number did you roll?",
            "catchKey": 9,
            "catchResponse": 9,
            "catchResponseTime": 4172,
            "trialTime": 14991
        },
        {
            "exptPart": "trial",
            "trialNumber": 17,
            "roleCurrent": "bullshitDetector",
            "diceSides": 10,
            "trueRoll": 0,
            "reportedRoll": 3,
            "compLie": -1,
            "compUnifLie": true,
            "compDetect": -1,
            "callBS": false,
            "playerTrialScore": 7,
            "oppTrialScore": 3,
            "playerTotalScore": 67,
            "oppTotalScore": 53,
            "waitTime": 6491.898790393416,
            "responseTime": 3771,
            "catchQuestion": "What number did you roll?",
            "catchKey": -1,
            "catchResponse": -1,
            "catchResponseTime": -1,
            "trialTime": 12148
        },
        {
            "exptPart": "trial",
            "trialNumber": 18,
            "roleCurrent": "bullshitter",
            "diceSides": 10,
            "trueRoll": 10,
            "reportedRoll": 10,
            "compLie": -1,
            "compUnifLie": false,
            "compDetect": 0.9545454545454546,
            "callBS": true,
            "playerTrialScore": 10,
            "oppTrialScore": -5,
            "playerTotalScore": 77,
            "oppTotalScore": 48,
            "waitTime": 2211.570304833075,
            "responseTime": 11400,
            "catchQuestion": "What number did you roll?",
            "catchKey": 10,
            "catchResponse": 10,
            "catchResponseTime": 3910,
            "trialTime": 18532
        },
        {
            "exptPart": "trial",
            "trialNumber": 19,
            "roleCurrent": "bullshitDetector",
            "diceSides": 10,
            "trueRoll": 2,
            "reportedRoll": 4,
            "compLie": -1,
            "compUnifLie": true,
            "compDetect": -1,
            "callBS": false,
            "playerTrialScore": 6,
            "oppTrialScore": 4,
            "playerTotalScore": 83,
            "oppTotalScore": 52,
            "waitTime": 6234.652372906832,
            "responseTime": 4293,
            "catchQuestion": "What number did you roll?",
            "catchKey": -1,
            "catchResponse": -1,
            "catchResponseTime": -1,
            "trialTime": 14095
        },
        {
            "exptPart": "trial",
            "trialNumber": 20,
            "roleCurrent": "bullshitter",
            "diceSides": 10,
            "trueRoll": 1,
            "reportedRoll": 3,
            "compLie": -1,
            "compUnifLie": false,
            "compDetect": 0.3181818181818182,
            "callBS": true,
            "playerTrialScore": -5,
            "oppTrialScore": 5,
            "playerTotalScore": 78,
            "oppTotalScore": 57,
            "waitTime": 3174.191416648905,
            "responseTime": 18192,
            "catchQuestion": "What number did you roll?",
            "catchKey": 1,
            "catchResponse": 1,
            "catchResponseTime": 3346,
            "trialTime": 24252
        },
        {
            "exptPart": "trial",
            "trialNumber": 21,
            "roleCurrent": "bullshitDetector",
            "diceSides": 10,
            "trueRoll": 6,
            "reportedRoll": 8,
            "compLie": 8,
            "compUnifLie": false,
            "compDetect": -1,
            "callBS": false,
            "playerTrialScore": 2,
            "oppTrialScore": 8,
            "playerTotalScore": 80,
            "oppTotalScore": 65,
            "waitTime": 5640.716599715905,
            "responseTime": 2988,
            "catchQuestion": "What number did you roll?",
            "catchKey": -1,
            "catchResponse": -1,
            "catchResponseTime": -1,
            "trialTime": 11440
        },
        {
            "exptPart": "trial",
            "trialNumber": 22,
            "roleCurrent": "bullshitter",
            "diceSides": 10,
            "trueRoll": 5,
            "reportedRoll": 5,
            "compLie": -1,
            "compUnifLie": false,
            "compDetect": 0.5,
            "callBS": true,
            "playerTrialScore": 5,
            "oppTrialScore": 0,
            "playerTotalScore": 85,
            "oppTotalScore": 65,
            "waitTime": 2189.9722184708944,
            "responseTime": 12073,
            "catchQuestion": "What number did you roll?",
            "catchKey": -1,
            "catchResponse": -1,
            "catchResponseTime": -1,
            "trialTime": 11184
        },
        {
            "exptPart": "trial",
            "trialNumber": 23,
            "roleCurrent": "bullshitDetector",
            "diceSides": 10,
            "trueRoll": 7,
            "reportedRoll": 7,
            "compLie": 3,
            "compUnifLie": false,
            "compDetect": -1,
            "callBS": true,
            "playerTrialScore": -2,
            "oppTrialScore": 7,
            "playerTotalScore": 83,
            "oppTotalScore": 72,
            "waitTime": 6970.360744932199,
            "responseTime": 4530,
            "catchQuestion": "What number did you roll?",
            "catchKey": -1,
            "catchResponse": -1,
            "catchResponseTime": -1,
            "trialTime": 13430
        },
        {
            "exptPart": "trial",
            "trialNumber": 24,
            "roleCurrent": "bullshitter",
            "diceSides": 10,
            "trueRoll": 2,
            "reportedRoll": 4,
            "compLie": -1,
            "compUnifLie": false,
            "compDetect": 0.4090909090909091,
            "callBS": false,
            "playerTrialScore": 4,
            "oppTrialScore": 6,
            "playerTotalScore": 87,
            "oppTotalScore": 78,
            "waitTime": 2230.3965505837286,
            "responseTime": 12506,
            "catchQuestion": "What number did you roll?",
            "catchKey": 2,
            "catchResponse": 2,
            "catchResponseTime": 3849,
            "trialTime": 13954
        },
        {
            "exptPart": "trial",
            "trialNumber": 25,
            "roleCurrent": "bullshitDetector",
            "diceSides": 10,
            "trueRoll": 5,
            "reportedRoll": 6,
            "compLie": 6,
            "compUnifLie": false,
            "compDetect": -1,
            "callBS": false,
            "playerTrialScore": 4,
            "oppTrialScore": 6,
            "playerTotalScore": 91,
            "oppTotalScore": 84,
            "waitTime": 6981.7739511809705,
            "responseTime": 3082,
            "catchQuestion": "What number did you roll?",
            "catchKey": -1,
            "catchResponse": -1,
            "catchResponseTime": -1,
            "trialTime": 12914
        },
        {
            "exptPart": "trial",
            "trialNumber": 26,
            "roleCurrent": "bullshitter",
            "diceSides": 10,
            "trueRoll": 1,
            "reportedRoll": 3,
            "compLie": -1,
            "compUnifLie": false,
            "compDetect": 0.3181818181818182,
            "callBS": false,
            "playerTrialScore": 3,
            "oppTrialScore": 7,
            "playerTotalScore": 94,
            "oppTotalScore": 91,
            "waitTime": 2461.6356423069874,
            "responseTime": 10844,
            "catchQuestion": "What number did you roll?",
            "catchKey": -1,
            "catchResponse": -1,
            "catchResponseTime": -1,
            "trialTime": 9530
        },
        {
            "exptPart": "trial",
            "trialNumber": 27,
            "roleCurrent": "bullshitDetector",
            "diceSides": 10,
            "trueRoll": 4,
            "reportedRoll": 10,
            "compLie": 10,
            "compUnifLie": false,
            "compDetect": -1,
            "callBS": false,
            "playerTrialScore": 0,
            "oppTrialScore": 10,
            "playerTotalScore": 94,
            "oppTotalScore": 101,
            "waitTime": 6893.139685530721,
            "responseTime": 3783,
            "catchQuestion": "What number did you roll?",
            "catchKey": -1,
            "catchResponse": -1,
            "catchResponseTime": -1,
            "trialTime": 12788
        },
        {
            "exptPart": "trial",
            "trialNumber": 28,
            "roleCurrent": "bullshitter",
            "diceSides": 10,
            "trueRoll": 9,
            "reportedRoll": 9,
            "compLie": -1,
            "compUnifLie": false,
            "compDetect": 0.8636363636363636,
            "callBS": true,
            "playerTrialScore": 9,
            "oppTrialScore": -4,
            "playerTotalScore": 103,
            "oppTotalScore": 97,
            "waitTime": 2417.3332128456013,
            "responseTime": 10834,
            "catchQuestion": "What number did you roll?",
            "catchKey": 9,
            "catchResponse": 9,
            "catchResponseTime": 4044,
            "trialTime": 21274
        },
        {
            "exptPart": "trial",
            "trialNumber": 29,
            "roleCurrent": "bullshitDetector",
            "diceSides": 10,
            "trueRoll": 1,
            "reportedRoll": 9,
            "compLie": 9,
            "compUnifLie": false,
            "compDetect": -1,
            "callBS": false,
            "playerTrialScore": 1,
            "oppTrialScore": 9,
            "playerTotalScore": 104,
            "oppTotalScore": 106,
            "waitTime": 5696.0340016590835,
            "responseTime": 3035,
            "catchQuestion": "What number did you roll?",
            "catchKey": -1,
            "catchResponse": -1,
            "catchResponseTime": -1,
            "trialTime": 10484
        },
        {
            "exptPart": "trial",
            "trialNumber": 30,
            "roleCurrent": "bullshitter",
            "diceSides": 10,
            "trueRoll": 9,
            "reportedRoll": 9,
            "compLie": -1,
            "compUnifLie": false,
            "compDetect": 0.8636363636363636,
            "callBS": false,
            "playerTrialScore": 9,
            "oppTrialScore": 1,
            "playerTotalScore": 113,
            "oppTotalScore": 107,
            "waitTime": 2168.655203342351,
            "responseTime": 10162,
            "catchQuestion": "What number did you roll?",
            "catchKey": -1,
            "catchResponse": -1,
            "catchResponseTime": -1,
            "trialTime": 10867
        },
        {
            "exptPart": "trial",
            "trialNumber": 31,
            "roleCurrent": "bullshitDetector",
            "diceSides": 10,
            "trueRoll": 1,
            "reportedRoll": 9,
            "compLie": -1,
            "compUnifLie": true,
            "compDetect": -1,
            "callBS": true,
            "playerTrialScore": 5,
            "oppTrialScore": -5,
            "playerTotalScore": 118,
            "oppTotalScore": 102,
            "waitTime": 5693.572280683812,
            "responseTime": 1283,
            "catchQuestion": "What number did your opponent report rolling?",
            "catchKey": 9,
            "catchResponse": 9,
            "catchResponseTime": 2851,
            "trialTime": 11612
        },
        {
            "exptPart": "trial",
            "trialNumber": 32,
            "roleCurrent": "bullshitter",
            "diceSides": 10,
            "trueRoll": 9,
            "reportedRoll": 9,
            "compLie": -1,
            "compUnifLie": false,
            "compDetect": 0.8636363636363636,
            "callBS": true,
            "playerTrialScore": 9,
            "oppTrialScore": -4,
            "playerTotalScore": 127,
            "oppTotalScore": 98,
            "waitTime": 2851.5550536280707,
            "responseTime": 11650,
            "catchQuestion": "What number did you roll?",
            "catchKey": 9,
            "catchResponse": 9,
            "catchResponseTime": 2719,
            "trialTime": 19067
        },
        {
            "exptPart": "trial",
            "trialNumber": 33,
            "roleCurrent": "bullshitDetector",
            "diceSides": 10,
            "trueRoll": 5,
            "reportedRoll": 8,
            "compLie": 8,
            "compUnifLie": false,
            "compDetect": -1,
            "callBS": false,
            "playerTrialScore": 2,
            "oppTrialScore": 8,
            "playerTotalScore": 129,
            "oppTotalScore": 106,
            "waitTime": 6277.9050717315295,
            "responseTime": 7361,
            "catchQuestion": "What number did you roll?",
            "catchKey": -1,
            "catchResponse": -1,
            "catchResponseTime": -1,
            "trialTime": 15563
        },
        {
            "exptPart": "trial",
            "trialNumber": 34,
            "roleCurrent": "bullshitter",
            "diceSides": 10,
            "trueRoll": 5,
            "reportedRoll": 6,
            "compLie": -1,
            "compUnifLie": false,
            "compDetect": 0.5909090909090909,
            "callBS": true,
            "playerTrialScore": -5,
            "oppTrialScore": 5,
            "playerTotalScore": 124,
            "oppTotalScore": 111,
            "waitTime": 2748.2683278881404,
            "responseTime": 14842,
            "catchQuestion": "What number did you roll?",
            "catchKey": -1,
            "catchResponse": -1,
            "catchResponseTime": -1,
            "trialTime": 10165
        },
        {
            "exptPart": "trial",
            "trialNumber": 35,
            "roleCurrent": "bullshitDetector",
            "diceSides": 10,
            "trueRoll": 8,
            "reportedRoll": 8,
            "compLie": 0,
            "compUnifLie": false,
            "compDetect": -1,
            "callBS": true,
            "playerTrialScore": -3,
            "oppTrialScore": 8,
            "playerTotalScore": 121,
            "oppTotalScore": 119,
            "waitTime": 6548.372597930424,
            "responseTime": 2993,
            "catchQuestion": "What number did you roll?",
            "catchKey": -1,
            "catchResponse": -1,
            "catchResponseTime": -1,
            "trialTime": 12055
        },
        {
            "exptPart": "trial",
            "trialNumber": 36,
            "roleCurrent": "bullshitter",
            "diceSides": 10,
            "trueRoll": 1,
            "reportedRoll": 3,
            "compLie": -1,
            "compUnifLie": false,
            "compDetect": 0.3181818181818182,
            "callBS": false,
            "playerTrialScore": 3,
            "oppTrialScore": 7,
            "playerTotalScore": 124,
            "oppTotalScore": 126,
            "waitTime": 2152.1095170921376,
            "responseTime": 10798,
            "catchQuestion": "What number did you roll?",
            "catchKey": -1,
            "catchResponse": -1,
            "catchResponseTime": -1,
            "trialTime": 9184
        },
        {
            "exptPart": "trial",
            "trialNumber": 37,
            "roleCurrent": "bullshitDetector",
            "diceSides": 10,
            "trueRoll": 0,
            "reportedRoll": 9,
            "compLie": -1,
            "compUnifLie": true,
            "compDetect": -1,
            "callBS": false,
            "playerTrialScore": 1,
            "oppTrialScore": 9,
            "playerTotalScore": 125,
            "oppTotalScore": 135,
            "waitTime": 5824.213292401699,
            "responseTime": 1649,
            "catchQuestion": "What number did you roll?",
            "catchKey": -1,
            "catchResponse": -1,
            "catchResponseTime": -1,
            "trialTime": 9121
        },
        {
            "exptPart": "trial",
            "trialNumber": 38,
            "roleCurrent": "bullshitter",
            "diceSides": 10,
            "trueRoll": 10,
            "reportedRoll": 10,
            "compLie": -1,
            "compUnifLie": false,
            "compDetect": 0.9545454545454546,
            "callBS": true,
            "playerTrialScore": 10,
            "oppTrialScore": -5,
            "playerTotalScore": 135,
            "oppTotalScore": 130,
            "waitTime": 2903.275704191539,
            "responseTime": 8944,
            "catchQuestion": "What number did you roll?",
            "catchKey": -1,
            "catchResponse": -1,
            "catchResponseTime": -1,
            "trialTime": 13431
        },
        {
            "exptPart": "trial",
            "trialNumber": 39,
            "roleCurrent": "bullshitDetector",
            "diceSides": 10,
            "trueRoll": 5,
            "reportedRoll": 5,
            "compLie": 5,
            "compUnifLie": false,
            "compDetect": -1,
            "callBS": false,
            "playerTrialScore": 5,
            "oppTrialScore": 5,
            "playerTotalScore": 140,
            "oppTotalScore": 135,
            "waitTime": 7365.597654168315,
            "responseTime": 3089,
            "catchQuestion": "What number did you roll?",
            "catchKey": -1,
            "catchResponse": -1,
            "catchResponseTime": -1,
            "trialTime": 12528
        },
        {
            "exptPart": "trial",
            "trialNumber": 40,
            "roleCurrent": "bullshitter",
            "diceSides": 10,
            "trueRoll": 10,
            "reportedRoll": 10,
            "compLie": -1,
            "compUnifLie": false,
            "compDetect": 0.9545454545454546,
            "callBS": true,
            "playerTrialScore": 10,
            "oppTrialScore": -5,
            "playerTotalScore": 150,
            "oppTotalScore": 130,
            "waitTime": 2229.3014975110045,
            "responseTime": 10446,
            "catchQuestion": "What number did you roll?",
            "catchKey": -1,
            "catchResponse": -1,
            "catchResponseTime": -1,
            "trialTime": 12055
        },
        {
            "exptPart": "trial",
            "trialNumber": 41,
            "roleCurrent": "bullshitDetector",
            "diceSides": 10,
            "trueRoll": 7,
            "reportedRoll": 8,
            "compLie": -1,
            "compUnifLie": true,
            "compDetect": -1,
            "callBS": false,
            "playerTrialScore": 2,
            "oppTrialScore": 8,
            "playerTotalScore": 152,
            "oppTotalScore": 138,
            "waitTime": 5331.562877183846,
            "responseTime": 2874,
            "catchQuestion": "What number did you roll?",
            "catchKey": -1,
            "catchResponse": -1,
            "catchResponseTime": -1,
            "trialTime": 9756
        },
        {
            "exptPart": "trial",
            "trialNumber": 42,
            "roleCurrent": "bullshitter",
            "diceSides": 10,
            "trueRoll": 2,
            "reportedRoll": 4,
            "compLie": -1,
            "compUnifLie": false,
            "compDetect": 0.4090909090909091,
            "callBS": false,
            "playerTrialScore": 4,
            "oppTrialScore": 6,
            "playerTotalScore": 156,
            "oppTotalScore": 144,
            "waitTime": 2564.2628278322873,
            "responseTime": 9860,
            "catchQuestion": "What number did you roll?",
            "catchKey": -1,
            "catchResponse": -1,
            "catchResponseTime": -1,
            "trialTime": 10077
        },
        {
            "exptPart": "trial",
            "trialNumber": 43,
            "roleCurrent": "bullshitDetector",
            "diceSides": 10,
            "trueRoll": 8,
            "reportedRoll": 8,
            "compLie": 6,
            "compUnifLie": false,
            "compDetect": -1,
            "callBS": true,
            "playerTrialScore": -3,
            "oppTrialScore": 8,
            "playerTotalScore": 153,
            "oppTotalScore": 152,
            "waitTime": 6564.19901497729,
            "responseTime": 3925,
            "catchQuestion": "What number did you roll?",
            "catchKey": -1,
            "catchResponse": -1,
            "catchResponseTime": -1,
            "trialTime": 12445
        },
        {
            "exptPart": "trial",
            "trialNumber": 44,
            "roleCurrent": "bullshitter",
            "diceSides": 10,
            "trueRoll": 6,
            "reportedRoll": 6,
            "compLie": -1,
            "compUnifLie": false,
            "compDetect": 0.5909090909090909,
            "callBS": true,
            "playerTrialScore": 6,
            "oppTrialScore": -1,
            "playerTotalScore": 159,
            "oppTotalScore": 151,
            "waitTime": 2465.88103325461,
            "responseTime": 11394,
            "catchQuestion": "What number did you roll?",
            "catchKey": -1,
            "catchResponse": -1,
            "catchResponseTime": -1,
            "trialTime": 11824
        },
        {
            "exptPart": "trial",
            "trialNumber": 45,
            "roleCurrent": "bullshitDetector",
            "diceSides": 10,
            "trueRoll": 1,
            "reportedRoll": 2,
            "compLie": 2,
            "compUnifLie": false,
            "compDetect": -1,
            "callBS": false,
            "playerTrialScore": 8,
            "oppTrialScore": 2,
            "playerTotalScore": 167,
            "oppTotalScore": 153,
            "waitTime": 5586.650617135233,
            "responseTime": 6241,
            "catchQuestion": "What number did you roll?",
            "catchKey": -1,
            "catchResponse": -1,
            "catchResponseTime": -1,
            "trialTime": 14062
        },
        {
            "exptPart": "trial",
            "trialNumber": 46,
            "roleCurrent": "bullshitter",
            "diceSides": 10,
            "trueRoll": 7,
            "reportedRoll": 7,
            "compLie": -1,
            "compUnifLie": false,
            "compDetect": 0.6818181818181818,
            "callBS": true,
            "playerTrialScore": 7,
            "oppTrialScore": -2,
            "playerTotalScore": 174,
            "oppTotalScore": 151,
            "waitTime": 2238.543663678771,
            "responseTime": 13790,
            "catchQuestion": "What number did you roll?",
            "catchKey": -1,
            "catchResponse": -1,
            "catchResponseTime": -1,
            "trialTime": 10631
        },
        {
            "exptPart": "trial",
            "trialNumber": 47,
            "roleCurrent": "bullshitDetector",
            "diceSides": 10,
            "trueRoll": 3,
            "reportedRoll": 3,
            "compLie": 2,
            "compUnifLie": false,
            "compDetect": -1,
            "callBS": false,
            "playerTrialScore": 7,
            "oppTrialScore": 3,
            "playerTotalScore": 181,
            "oppTotalScore": 154,
            "waitTime": 6140.581110259538,
            "responseTime": 1525,
            "catchQuestion": "What number did you roll?",
            "catchKey": -1,
            "catchResponse": -1,
            "catchResponseTime": -1,
            "trialTime": 9553
        },
        {
            "exptPart": "trial",
            "trialNumber": 48,
            "roleCurrent": "bullshitter",
            "diceSides": 10,
            "trueRoll": 2,
            "reportedRoll": 4,
            "compLie": -1,
            "compUnifLie": false,
            "compDetect": 0.4090909090909091,
            "callBS": true,
            "playerTrialScore": -5,
            "oppTrialScore": 5,
            "playerTotalScore": 176,
            "oppTotalScore": 159,
            "waitTime": 2810.347227387762,
            "responseTime": 9753,
            "catchQuestion": "What number did you roll?",
            "catchKey": -1,
            "catchResponse": -1,
            "catchResponseTime": -1,
            "trialTime": 11298
        },
        {
            "exptPart": "trial",
            "trialNumber": 49,
            "roleCurrent": "bullshitDetector",
            "diceSides": 10,
            "trueRoll": 2,
            "reportedRoll": 9,
            "compLie": 9,
            "compUnifLie": false,
            "compDetect": -1,
            "callBS": false,
            "playerTrialScore": 1,
            "oppTrialScore": 9,
            "playerTotalScore": 177,
            "oppTotalScore": 168,
            "waitTime": 6730.408810323599,
            "responseTime": 2630,
            "catchQuestion": "What number did you roll?",
            "catchKey": -1,
            "catchResponse": -1,
            "catchResponseTime": -1,
            "trialTime": 11143
        },
        {
            "exptPart": "trial",
            "trialNumber": 50,
            "roleCurrent": "bullshitter",
            "diceSides": 10,
            "trueRoll": 8,
            "reportedRoll": 8,
            "compLie": -1,
            "compUnifLie": false,
            "compDetect": 0.7727272727272727,
            "callBS": true,
            "playerTrialScore": 8,
            "oppTrialScore": -3,
            "playerTotalScore": 185,
            "oppTotalScore": 165,
            "waitTime": 2994.2895641003997,
            "responseTime": 9388,
            "catchQuestion": "What number did you roll?",
            "catchKey": -1,
            "catchResponse": -1,
            "catchResponseTime": -1,
            "trialTime": 9879
        },
        {
            "exptPart": "trial",
            "trialNumber": 51,
            "roleCurrent": "bullshitDetector",
            "diceSides": 10,
            "trueRoll": 4,
            "reportedRoll": 5,
            "compLie": 5,
            "compUnifLie": false,
            "compDetect": -1,
            "callBS": false,
            "playerTrialScore": 5,
            "oppTrialScore": 5,
            "playerTotalScore": 190,
            "oppTotalScore": 170,
            "waitTime": 6878.041831436545,
            "responseTime": 1283,
            "catchQuestion": "What number did your opponent report rolling?",
            "catchKey": 5,
            "catchResponse": 5,
            "catchResponseTime": 3493,
            "trialTime": 13223
        },
        {
            "exptPart": "trial",
            "trialNumber": 52,
            "roleCurrent": "bullshitter",
            "diceSides": 10,
            "trueRoll": 2,
            "reportedRoll": 3,
            "compLie": -1,
            "compUnifLie": false,
            "compDetect": 0.3181818181818182,
            "callBS": false,
            "playerTrialScore": 3,
            "oppTrialScore": 7,
            "playerTotalScore": 193,
            "oppTotalScore": 177,
            "waitTime": 2118.837320034279,
            "responseTime": 12379,
            "catchQuestion": "What number did your opponent report rolling?",
            "catchKey": -1,
            "catchResponse": -1,
            "catchResponseTime": -1,
            "trialTime": 16479
        },
        {
            "exptPart": "trial",
            "trialNumber": 53,
            "roleCurrent": "bullshitDetector",
            "diceSides": 10,
            "trueRoll": 2,
            "reportedRoll": 2,
            "compLie": 0,
            "compUnifLie": false,
            "compDetect": -1,
            "callBS": false,
            "playerTrialScore": 8,
            "oppTrialScore": 2,
            "playerTotalScore": 201,
            "oppTotalScore": 179,
            "waitTime": 7281.8546414137045,
            "responseTime": 4856,
            "catchQuestion": "What number did your opponent report rolling?",
            "catchKey": -1,
            "catchResponse": -1,
            "catchResponseTime": -1,
            "trialTime": 15293
        },
        {
            "exptPart": "trial",
            "trialNumber": 54,
            "roleCurrent": "bullshitter",
            "diceSides": 10,
            "trueRoll": 2,
            "reportedRoll": 5,
            "compLie": -1,
            "compUnifLie": false,
            "compDetect": 0.5,
            "callBS": true,
            "playerTrialScore": -5,
            "oppTrialScore": 5,
            "playerTotalScore": 196,
            "oppTotalScore": 184,
            "waitTime": 3133.789915191011,
            "responseTime": 14336,
            "catchQuestion": "What number did you roll?",
            "catchKey": 2,
            "catchResponse": 2,
            "catchResponseTime": 2877,
            "trialTime": 14750
        },
        {
            "exptPart": "trial",
            "trialNumber": 55,
            "roleCurrent": "bullshitDetector",
            "diceSides": 10,
            "trueRoll": 9,
            "reportedRoll": 7,
            "compLie": -1,
            "compUnifLie": true,
            "compDetect": -1,
            "callBS": true,
            "playerTrialScore": 5,
            "oppTrialScore": -5,
            "playerTotalScore": 201,
            "oppTotalScore": 179,
            "waitTime": 6641.365053572575,
            "responseTime": 2282,
            "catchQuestion": "What number did you roll?",
            "catchKey": -1,
            "catchResponse": -1,
            "catchResponseTime": -1,
            "trialTime": 10793
        },
        {
            "exptPart": "trial",
            "trialNumber": 56,
            "roleCurrent": "bullshitter",
            "diceSides": 10,
            "trueRoll": 5,
            "reportedRoll": 5,
            "compLie": -1,
            "compUnifLie": false,
            "compDetect": 0.5,
            "callBS": false,
            "playerTrialScore": 5,
            "oppTrialScore": 5,
            "playerTotalScore": 206,
            "oppTotalScore": 184,
            "waitTime": 2451.648995804014,
            "responseTime": 10234,
            "catchQuestion": "What number did you roll?",
            "catchKey": -1,
            "catchResponse": -1,
            "catchResponseTime": -1,
            "trialTime": 11729
        },
        {
            "exptPart": "trial",
            "trialNumber": 57,
            "roleCurrent": "bullshitDetector",
            "diceSides": 10,
            "trueRoll": 2,
            "reportedRoll": 6,
            "compLie": -1,
            "compUnifLie": true,
            "compDetect": -1,
            "callBS": false,
            "playerTrialScore": 4,
            "oppTrialScore": 6,
            "playerTotalScore": 210,
            "oppTotalScore": 190,
            "waitTime": 5342.109547992279,
            "responseTime": 4538,
            "catchQuestion": "What number did you roll?",
            "catchKey": -1,
            "catchResponse": -1,
            "catchResponseTime": -1,
            "trialTime": 12167
        },
        {
            "exptPart": "trial",
            "trialNumber": 58,
            "roleCurrent": "bullshitter",
            "diceSides": 10,
            "trueRoll": 2,
            "reportedRoll": 4,
            "compLie": -1,
            "compUnifLie": false,
            "compDetect": 0.4090909090909091,
            "callBS": false,
            "playerTrialScore": 4,
            "oppTrialScore": 6,
            "playerTotalScore": 214,
            "oppTotalScore": 196,
            "waitTime": 2874.4157756375425,
            "responseTime": 12141,
            "catchQuestion": "What number did you roll?",
            "catchKey": -1,
            "catchResponse": -1,
            "catchResponseTime": -1,
            "trialTime": 14352
        },
        {
            "exptPart": "trial",
            "trialNumber": 59,
            "roleCurrent": "bullshitDetector",
            "diceSides": 10,
            "trueRoll": 10,
            "reportedRoll": 10,
            "compLie": 7,
            "compUnifLie": false,
            "compDetect": -1,
            "callBS": false,
            "playerTrialScore": 0,
            "oppTrialScore": 10,
            "playerTotalScore": 214,
            "oppTotalScore": 206,
            "waitTime": 5551.718435515685,
            "responseTime": 3176,
            "catchQuestion": "What number did your opponent report rolling?",
            "catchKey": 10,
            "catchResponse": 10,
            "catchResponseTime": 7031,
            "trialTime": 17630
        },
        {
            "exptPart": "trial",
            "trialNumber": 60,
            "roleCurrent": "bullshitter",
            "diceSides": 10,
            "trueRoll": 0,
            "reportedRoll": 10,
            "compLie": -1,
            "compUnifLie": false,
            "compDetect": 0.9545454545454546,
            "callBS": true,
            "playerTrialScore": -5,
            "oppTrialScore": 5,
            "playerTotalScore": 209,
            "oppTotalScore": 211,
            "waitTime": 2094.205244669113,
            "responseTime": 17753,
            "catchQuestion": "What number did you roll?",
            "catchKey": 0,
            "catchResponse": 0,
            "catchResponseTime": 2833,
            "trialTime": 13187
        },
        {
            "exptPart": "trial",
            "trialNumber": 61,
            "roleCurrent": "bullshitDetector",
            "diceSides": 10,
            "trueRoll": 2,
            "reportedRoll": 3,
            "compLie": 3,
            "compUnifLie": false,
            "compDetect": -1,
            "callBS": true,
            "playerTrialScore": 5,
            "oppTrialScore": -5,
            "playerTotalScore": 214,
            "oppTotalScore": 206,
            "waitTime": 6266.587881629735,
            "responseTime": 8499,
            "catchQuestion": "What number did you roll?",
            "catchKey": -1,
            "catchResponse": -1,
            "catchResponseTime": -1,
            "trialTime": 16482
        },
        {
            "exptPart": "trial",
            "trialNumber": 62,
            "roleCurrent": "bullshitter",
            "diceSides": 10,
            "trueRoll": 4,
            "reportedRoll": 5,
            "compLie": -1,
            "compUnifLie": false,
            "compDetect": 0.5,
            "callBS": false,
            "playerTrialScore": 5,
            "oppTrialScore": 5,
            "playerTotalScore": 219,
            "oppTotalScore": 211,
            "waitTime": 2204.5284822900553,
            "responseTime": 16723,
            "catchQuestion": "What number did you roll?",
            "catchKey": -1,
            "catchResponse": -1,
            "catchResponseTime": -1,
            "trialTime": 10741
        },
        {
            "exptPart": "trial",
            "trialNumber": 63,
            "roleCurrent": "bullshitDetector",
            "diceSides": 10,
            "trueRoll": 8,
            "reportedRoll": 8,
            "compLie": 8,
            "compUnifLie": false,
            "compDetect": -1,
            "callBS": false,
            "playerTrialScore": 2,
            "oppTrialScore": 8,
            "playerTotalScore": 221,
            "oppTotalScore": 219,
            "waitTime": 6080.8374410458655,
            "responseTime": 2118,
            "catchQuestion": "What number did you roll?",
            "catchKey": -1,
            "catchResponse": -1,
            "catchResponseTime": -1,
            "trialTime": 9767
        },
        {
            "exptPart": "trial",
            "trialNumber": 64,
            "roleCurrent": "bullshitter",
            "diceSides": 10,
            "trueRoll": 8,
            "reportedRoll": 8,
            "compLie": -1,
            "compUnifLie": false,
            "compDetect": 0.7727272727272727,
            "callBS": true,
            "playerTrialScore": 8,
            "oppTrialScore": -3,
            "playerTotalScore": 229,
            "oppTotalScore": 216,
            "waitTime": 3171.9807297690486,
            "responseTime": 8581,
            "catchQuestion": "What number did you roll?",
            "catchKey": -1,
            "catchResponse": -1,
            "catchResponseTime": -1,
            "trialTime": 10555
        },
        {
            "exptPart": "trial",
            "trialNumber": 65,
            "roleCurrent": "bullshitDetector",
            "diceSides": 10,
            "trueRoll": 1,
            "reportedRoll": 10,
            "compLie": -1,
            "compUnifLie": true,
            "compDetect": -1,
            "callBS": false,
            "playerTrialScore": 0,
            "oppTrialScore": 10,
            "playerTotalScore": 229,
            "oppTotalScore": 226,
            "waitTime": 6011.628866423913,
            "responseTime": 10162,
            "catchQuestion": "What number did you roll?",
            "catchKey": -1,
            "catchResponse": -1,
            "catchResponseTime": -1,
            "trialTime": 18886
        },
        {
            "exptPart": "trial",
            "trialNumber": 66,
            "roleCurrent": "bullshitter",
            "diceSides": 10,
            "trueRoll": 5,
            "reportedRoll": 5,
            "compLie": -1,
            "compUnifLie": false,
            "compDetect": 0.5,
            "callBS": false,
            "playerTrialScore": 5,
            "oppTrialScore": 5,
            "playerTotalScore": 234,
            "oppTotalScore": 231,
            "waitTime": 2307.9732531775026,
            "responseTime": 17480,
            "catchQuestion": "What number did you roll?",
            "catchKey": -1,
            "catchResponse": -1,
            "catchResponseTime": -1,
            "trialTime": 13173
        },
        {
            "exptPart": "trial",
            "trialNumber": 67,
            "roleCurrent": "bullshitDetector",
            "diceSides": 10,
            "trueRoll": 8,
            "reportedRoll": 9,
            "compLie": 9,
            "compUnifLie": false,
            "compDetect": -1,
            "callBS": false,
            "playerTrialScore": 1,
            "oppTrialScore": 9,
            "playerTotalScore": 235,
            "oppTotalScore": 240,
            "waitTime": 5177.248068665866,
            "responseTime": 3469,
            "catchQuestion": "What number did you roll?",
            "catchKey": -1,
            "catchResponse": -1,
            "catchResponseTime": -1,
            "trialTime": 10104
        },
        {
            "exptPart": "trial",
            "trialNumber": 68,
            "roleCurrent": "bullshitter",
            "diceSides": 10,
            "trueRoll": 7,
            "reportedRoll": 7,
            "compLie": -1,
            "compUnifLie": false,
            "compDetect": 0.6818181818181818,
            "callBS": true,
            "playerTrialScore": 7,
            "oppTrialScore": -2,
            "playerTotalScore": 242,
            "oppTotalScore": 238,
            "waitTime": 2400.4278960808674,
            "responseTime": 10579,
            "catchQuestion": "What number did you roll?",
            "catchKey": -1,
            "catchResponse": -1,
            "catchResponseTime": -1,
            "trialTime": 11257
        },
        {
            "exptPart": "trial",
            "trialNumber": 69,
            "roleCurrent": "bullshitDetector",
            "diceSides": 10,
            "trueRoll": 5,
            "reportedRoll": 5,
            "compLie": 0,
            "compUnifLie": false,
            "compDetect": -1,
            "callBS": false,
            "playerTrialScore": 5,
            "oppTrialScore": 5,
            "playerTotalScore": 247,
            "oppTotalScore": 243,
            "waitTime": 5795.364343004947,
            "responseTime": 2065,
            "catchQuestion": "What number did you roll?",
            "catchKey": -1,
            "catchResponse": -1,
            "catchResponseTime": -1,
            "trialTime": 9499
        },
        {
            "exptPart": "trial",
            "trialNumber": 70,
            "roleCurrent": "bullshitter",
            "diceSides": 10,
            "trueRoll": 9,
            "reportedRoll": 9,
            "compLie": -1,
            "compUnifLie": false,
            "compDetect": 0.8636363636363636,
            "callBS": true,
            "playerTrialScore": 9,
            "oppTrialScore": -4,
            "playerTotalScore": 256,
            "oppTotalScore": 239,
            "waitTime": 2672.463792909285,
            "responseTime": 8216,
            "catchQuestion": "What number did you roll?",
            "catchKey": -1,
            "catchResponse": -1,
            "catchResponseTime": -1,
            "trialTime": 10776
        },
        {
            "exptPart": "trial",
            "trialNumber": 71,
            "roleCurrent": "bullshitDetector",
            "diceSides": 10,
            "trueRoll": 2,
            "reportedRoll": 2,
            "compLie": 2,
            "compUnifLie": false,
            "compDetect": -1,
            "callBS": false,
            "playerTrialScore": 8,
            "oppTrialScore": 2,
            "playerTotalScore": 264,
            "oppTotalScore": 241,
            "waitTime": 5697.73508520926,
            "responseTime": 1882,
            "catchQuestion": "What number did you roll?",
            "catchKey": -1,
            "catchResponse": -1,
            "catchResponseTime": -1,
            "trialTime": 9333
        },
        {
            "exptPart": "trial",
            "trialNumber": 72,
            "roleCurrent": "bullshitter",
            "diceSides": 10,
            "trueRoll": 5,
            "reportedRoll": 5,
            "compLie": -1,
            "compUnifLie": false,
            "compDetect": 0.5,
            "callBS": true,
            "playerTrialScore": 5,
            "oppTrialScore": 0,
            "playerTotalScore": 269,
            "oppTotalScore": 241,
            "waitTime": 2491.988576257188,
            "responseTime": 9122,
            "catchQuestion": "What number did you roll?",
            "catchKey": -1,
            "catchResponse": -1,
            "catchResponseTime": -1,
            "trialTime": 10236
        },
        {
            "exptPart": "trial",
            "trialNumber": 73,
            "roleCurrent": "bullshitDetector",
            "diceSides": 10,
            "trueRoll": 1,
            "reportedRoll": 10,
            "compLie": -1,
            "compUnifLie": true,
            "compDetect": -1,
            "callBS": true,
            "playerTrialScore": 5,
            "oppTrialScore": -5,
            "playerTotalScore": 274,
            "oppTotalScore": 236,
            "waitTime": 5989.486043839341,
            "responseTime": 4399,
            "catchQuestion": "What number did you roll?",
            "catchKey": -1,
            "catchResponse": -1,
            "catchResponseTime": -1,
            "trialTime": 17588
        },
        {
            "exptPart": "trial",
            "trialNumber": 74,
            "roleCurrent": "bullshitter",
            "diceSides": 10,
            "trueRoll": 9,
            "reportedRoll": 9,
            "compLie": -1,
            "compUnifLie": false,
            "compDetect": 0.8636363636363636,
            "callBS": false,
            "playerTrialScore": 9,
            "oppTrialScore": 1,
            "playerTotalScore": 283,
            "oppTotalScore": 237,
            "waitTime": 2369.2490572426013,
            "responseTime": 16907,
            "catchQuestion": "What number did you roll?",
            "catchKey": -1,
            "catchResponse": -1,
            "catchResponseTime": -1,
            "trialTime": 14920
        },
        {
            "exptPart": "trial",
            "trialNumber": 75,
            "roleCurrent": "bullshitDetector",
            "diceSides": 10,
            "trueRoll": 9,
            "reportedRoll": 9,
            "compLie": 1,
            "compUnifLie": false,
            "compDetect": -1,
            "callBS": false,
            "playerTrialScore": 1,
            "oppTrialScore": 9,
            "playerTotalScore": 284,
            "oppTotalScore": 246,
            "waitTime": 5629.1298338615325,
            "responseTime": 1418,
            "catchQuestion": "What number did you roll?",
            "catchKey": -1,
            "catchResponse": -1,
            "catchResponseTime": -1,
            "trialTime": 8893
        },
        {
            "exptPart": "trial",
            "trialNumber": 76,
            "roleCurrent": "bullshitter",
            "diceSides": 10,
            "trueRoll": 5,
            "reportedRoll": 5,
            "compLie": -1,
            "compUnifLie": false,
            "compDetect": 0.5,
            "callBS": true,
            "playerTrialScore": 5,
            "oppTrialScore": 0,
            "playerTotalScore": 289,
            "oppTotalScore": 246,
            "waitTime": 2175.362107938913,
            "responseTime": 8315,
            "catchQuestion": "What number did you roll?",
            "catchKey": -1,
            "catchResponse": -1,
            "catchResponseTime": -1,
            "trialTime": 9394
        },
        {
            "exptPart": "trial",
            "trialNumber": 77,
            "roleCurrent": "bullshitDetector",
            "diceSides": 10,
            "trueRoll": 2,
            "reportedRoll": 6,
            "compLie": -1,
            "compUnifLie": true,
            "compDetect": -1,
            "callBS": true,
            "playerTrialScore": 5,
            "oppTrialScore": -5,
            "playerTotalScore": 294,
            "oppTotalScore": 241,
            "waitTime": 6202.170059489279,
            "responseTime": 8127,
            "catchQuestion": "What number did you roll?",
            "catchKey": -1,
            "catchResponse": -1,
            "catchResponseTime": -1,
            "trialTime": 16071
        },
        {
            "exptPart": "trial",
            "trialNumber": 78,
            "roleCurrent": "bullshitter",
            "diceSides": 10,
            "trueRoll": 3,
            "reportedRoll": 5,
            "compLie": -1,
            "compUnifLie": false,
            "compDetect": 0.5,
            "callBS": false,
            "playerTrialScore": 5,
            "oppTrialScore": 5,
            "playerTotalScore": 299,
            "oppTotalScore": 246,
            "waitTime": 2221.6705085684625,
            "responseTime": 15785,
            "catchQuestion": "What number did you roll?",
            "catchKey": -1,
            "catchResponse": -1,
            "catchResponseTime": -1,
            "trialTime": 13326
        },
        {
            "exptPart": "trial",
            "trialNumber": 79,
            "roleCurrent": "bullshitDetector",
            "diceSides": 10,
            "trueRoll": 7,
            "reportedRoll": 7,
            "compLie": 7,
            "compUnifLie": false,
            "compDetect": -1,
            "callBS": false,
            "playerTrialScore": 3,
            "oppTrialScore": 7,
            "playerTotalScore": 302,
            "oppTotalScore": 253,
            "waitTime": 6623.054451652136,
            "responseTime": 2524,
            "catchQuestion": "What number did you roll?",
            "catchKey": -1,
            "catchResponse": -1,
            "catchResponseTime": -1,
            "trialTime": 11713
        },
        {
            "exptPart": "trial",
            "trialNumber": 80,
            "roleCurrent": "bullshitter",
            "diceSides": 10,
            "trueRoll": 7,
            "reportedRoll": 7,
            "compLie": -1,
            "compUnifLie": false,
            "compDetect": 0.6818181818181818,
            "callBS": false,
            "playerTrialScore": 7,
            "oppTrialScore": 3,
            "playerTotalScore": 309,
            "oppTotalScore": 256,
            "waitTime": 2620.9210828255136,
            "responseTime": 9887,
            "catchQuestion": "What number did you roll?",
            "catchKey": -1,
            "catchResponse": -1,
            "catchResponseTime": -1,
            "trialTime": 11933
        },
        {
            "exptPart": "trial",
            "trialNumber": 81,
            "roleCurrent": "bullshitDetector",
            "diceSides": 10,
            "trueRoll": 4,
            "reportedRoll": 6,
            "compLie": 6,
            "compUnifLie": false,
            "compDetect": -1,
            "callBS": false,
            "playerTrialScore": 4,
            "oppTrialScore": 6,
            "playerTotalScore": 313,
            "oppTotalScore": 262,
            "waitTime": 5178.261452091303,
            "responseTime": 3292,
            "catchQuestion": "What number did you roll?",
            "catchKey": -1,
            "catchResponse": -1,
            "catchResponseTime": -1,
            "trialTime": 10092
        },
        {
            "exptPart": "trial",
            "trialNumber": 82,
            "roleCurrent": "bullshitter",
            "diceSides": 10,
            "trueRoll": 10,
            "reportedRoll": 10,
            "compLie": -1,
            "compUnifLie": false,
            "compDetect": 0.9545454545454546,
            "callBS": true,
            "playerTrialScore": 10,
            "oppTrialScore": -5,
            "playerTotalScore": 323,
            "oppTotalScore": 257,
            "waitTime": 2754.2106172683825,
            "responseTime": 10341,
            "catchQuestion": "What number did you roll?",
            "catchKey": 10,
            "catchResponse": 10,
            "catchResponseTime": 3391,
            "trialTime": 13770
        },
        {
            "exptPart": "trial",
            "trialNumber": 83,
            "roleCurrent": "bullshitDetector",
            "diceSides": 10,
            "trueRoll": 2,
            "reportedRoll": 2,
            "compLie": 2,
            "compUnifLie": false,
            "compDetect": -1,
            "callBS": false,
            "playerTrialScore": 8,
            "oppTrialScore": 2,
            "playerTotalScore": 331,
            "oppTotalScore": 259,
            "waitTime": 6720.153343561344,
            "responseTime": 4125,
            "catchQuestion": "What number did you roll?",
            "catchKey": -1,
            "catchResponse": -1,
            "catchResponseTime": -1,
            "trialTime": 12490
        },
        {
            "exptPart": "trial",
            "trialNumber": 84,
            "roleCurrent": "bullshitter",
            "diceSides": 10,
            "trueRoll": 3,
            "reportedRoll": 5,
            "compLie": -1,
            "compUnifLie": false,
            "compDetect": 0.5,
            "callBS": true,
            "playerTrialScore": -5,
            "oppTrialScore": 5,
            "playerTotalScore": 326,
            "oppTotalScore": 264,
            "waitTime": 3226.633343739722,
            "responseTime": 10534,
            "catchQuestion": "What number did you roll?",
            "catchKey": -1,
            "catchResponse": -1,
            "catchResponseTime": -1,
            "trialTime": 14780
        },
        {
            "exptPart": "trial",
            "trialNumber": 85,
            "roleCurrent": "bullshitDetector",
            "diceSides": 10,
            "trueRoll": 9,
            "reportedRoll": 9,
            "compLie": 8,
            "compUnifLie": false,
            "compDetect": -1,
            "callBS": false,
            "playerTrialScore": 1,
            "oppTrialScore": 9,
            "playerTotalScore": 327,
            "oppTotalScore": 273,
            "waitTime": 7032.368454300065,
            "responseTime": 2615,
            "catchQuestion": "What number did you roll?",
            "catchKey": -1,
            "catchResponse": -1,
            "catchResponseTime": -1,
            "trialTime": 19393
        },
        {
            "exptPart": "trial",
            "trialNumber": 86,
            "roleCurrent": "bullshitter",
            "diceSides": 10,
            "trueRoll": 9,
            "reportedRoll": 9,
            "compLie": -1,
            "compUnifLie": false,
            "compDetect": 0.8636363636363636,
            "callBS": false,
            "playerTrialScore": 9,
            "oppTrialScore": 1,
            "playerTotalScore": 336,
            "oppTotalScore": 274,
            "waitTime": 2132.672002798283,
            "responseTime": 16686,
            "catchQuestion": "What number did you roll?",
            "catchKey": -1,
            "catchResponse": -1,
            "catchResponseTime": -1,
            "trialTime": 8123
        },
        {
            "exptPart": "trial",
            "trialNumber": 87,
            "roleCurrent": "bullshitDetector",
            "diceSides": 10,
            "trueRoll": 3,
            "reportedRoll": 3,
            "compLie": 3,
            "compUnifLie": false,
            "compDetect": -1,
            "callBS": false,
            "playerTrialScore": 7,
            "oppTrialScore": 3,
            "playerTotalScore": 343,
            "oppTotalScore": 277,
            "waitTime": 7387.337910044506,
            "responseTime": 1811,
            "catchQuestion": "What number did you roll?",
            "catchKey": -1,
            "catchResponse": -1,
            "catchResponseTime": -1,
            "trialTime": 11178
        },
        {
            "exptPart": "trial",
            "trialNumber": 88,
            "roleCurrent": "bullshitter",
            "diceSides": 10,
            "trueRoll": 10,
            "reportedRoll": 10,
            "compLie": -1,
            "compUnifLie": false,
            "compDetect": 0.9545454545454546,
            "callBS": true,
            "playerTrialScore": 10,
            "oppTrialScore": -5,
            "playerTotalScore": 353,
            "oppTotalScore": 272,
            "waitTime": 3107.887909404688,
            "responseTime": 9183,
            "catchQuestion": "What number did you roll?",
            "catchKey": -1,
            "catchResponse": -1,
            "catchResponseTime": -1,
            "trialTime": 11452
        },
        {
            "exptPart": "trial",
            "trialNumber": 89,
            "roleCurrent": "bullshitDetector",
            "diceSides": 10,
            "trueRoll": 10,
            "reportedRoll": 4,
            "compLie": -1,
            "compUnifLie": true,
            "compDetect": -1,
            "callBS": true,
            "playerTrialScore": 5,
            "oppTrialScore": -5,
            "playerTotalScore": 358,
            "oppTotalScore": 267,
            "waitTime": 5588.608636368408,
            "responseTime": 6496,
            "catchQuestion": "What number did your opponent report rolling?",
            "catchKey": 4,
            "catchResponse": 4,
            "catchResponseTime": 3663,
            "trialTime": 17971
        },
        {
            "exptPart": "trial",
            "trialNumber": 90,
            "roleCurrent": "bullshitter",
            "diceSides": 10,
            "trueRoll": 9,
            "reportedRoll": 9,
            "compLie": -1,
            "compUnifLie": false,
            "compDetect": 0.8636363636363636,
            "callBS": true,
            "playerTrialScore": 9,
            "oppTrialScore": -4,
            "playerTotalScore": 367,
            "oppTotalScore": 263,
            "waitTime": 2232.6135502499933,
            "responseTime": 17868,
            "catchQuestion": "What number did your opponent report rolling?",
            "catchKey": -1,
            "catchResponse": -1,
            "catchResponseTime": -1,
            "trialTime": 13636
        },
        {
            "exptPart": "trial",
            "trialNumber": 91,
            "roleCurrent": "bullshitDetector",
            "diceSides": 10,
            "trueRoll": 6,
            "reportedRoll": 6,
            "compLie": 2,
            "compUnifLie": false,
            "compDetect": -1,
            "callBS": false,
            "playerTrialScore": 4,
            "oppTrialScore": 6,
            "playerTotalScore": 371,
            "oppTotalScore": 269,
            "waitTime": 6386.99117289198,
            "responseTime": 1779,
            "catchQuestion": "What number did your opponent report rolling?",
            "catchKey": -1,
            "catchResponse": -1,
            "catchResponseTime": -1,
            "trialTime": 9949
        },
        {
            "exptPart": "trial",
            "trialNumber": 92,
            "roleCurrent": "bullshitter",
            "diceSides": 10,
            "trueRoll": 7,
            "reportedRoll": 7,
            "compLie": -1,
            "compUnifLie": false,
            "compDetect": 0.6818181818181818,
            "callBS": true,
            "playerTrialScore": 7,
            "oppTrialScore": -2,
            "playerTotalScore": 378,
            "oppTotalScore": 267,
            "waitTime": 2837.697727521594,
            "responseTime": 8423,
            "catchQuestion": "What number did your opponent report rolling?",
            "catchKey": -1,
            "catchResponse": -1,
            "catchResponseTime": -1,
            "trialTime": 14788
        },
        {
            "exptPart": "trial",
            "trialNumber": 93,
            "roleCurrent": "bullshitDetector",
            "diceSides": 10,
            "trueRoll": 7,
            "reportedRoll": 7,
            "compLie": 6,
            "compUnifLie": false,
            "compDetect": -1,
            "callBS": false,
            "playerTrialScore": 3,
            "oppTrialScore": 7,
            "playerTotalScore": 381,
            "oppTotalScore": 274,
            "waitTime": 5666.460311253236,
            "responseTime": 7365,
            "catchQuestion": "What number did your opponent report rolling?",
            "catchKey": -1,
            "catchResponse": -1,
            "catchResponseTime": -1,
            "trialTime": 15990
        },
        {
            "exptPart": "trial",
            "trialNumber": 94,
            "roleCurrent": "bullshitter",
            "diceSides": 10,
            "trueRoll": 1,
            "reportedRoll": 3,
            "compLie": -1,
            "compUnifLie": false,
            "compDetect": 0.3181818181818182,
            "callBS": false,
            "playerTrialScore": 3,
            "oppTrialScore": 7,
            "playerTotalScore": 384,
            "oppTotalScore": 281,
            "waitTime": 2076.428447441831,
            "responseTime": 22373,
            "catchQuestion": "What number did you roll?",
            "catchKey": 1,
            "catchResponse": 1,
            "catchResponseTime": 3058,
            "trialTime": 20155
        },
        {
            "exptPart": "trial",
            "trialNumber": 95,
            "roleCurrent": "bullshitDetector",
            "diceSides": 10,
            "trueRoll": 7,
            "reportedRoll": 7,
            "compLie": 1,
            "compUnifLie": false,
            "compDetect": -1,
            "callBS": false,
            "playerTrialScore": 3,
            "oppTrialScore": 7,
            "playerTotalScore": 387,
            "oppTotalScore": 288,
            "waitTime": 5891.034825895793,
            "responseTime": 4922,
            "catchQuestion": "What number did you roll?",
            "catchKey": -1,
            "catchResponse": -1,
            "catchResponseTime": -1,
            "trialTime": 15559
        },
        {
            "exptPart": "trial",
            "trialNumber": 96,
            "roleCurrent": "bullshitter",
            "diceSides": 10,
            "trueRoll": 6,
            "reportedRoll": 6,
            "compLie": -1,
            "compUnifLie": false,
            "compDetect": 0.5909090909090909,
            "callBS": false,
            "playerTrialScore": 6,
            "oppTrialScore": 4,
            "playerTotalScore": 393,
            "oppTotalScore": 292,
            "waitTime": 2088.74386685883,
            "responseTime": 14330,
            "catchQuestion": "What number did you roll?",
            "catchKey": -1,
            "catchResponse": -1,
            "catchResponseTime": -1,
            "trialTime": 13157
        },
        {
            "exptPart": "trial",
            "trialNumber": 97,
            "roleCurrent": "bullshitDetector",
            "diceSides": 10,
            "trueRoll": 3,
            "reportedRoll": 5,
            "compLie": 5,
            "compUnifLie": false,
            "compDetect": -1,
            "callBS": false,
            "playerTrialScore": 5,
            "oppTrialScore": 5,
            "playerTotalScore": 398,
            "oppTotalScore": 297,
            "waitTime": 5838.152986497891,
            "responseTime": 1893,
            "catchQuestion": "What number did you roll?",
            "catchKey": -1,
            "catchResponse": -1,
            "catchResponseTime": -1,
            "trialTime": 9276
        },
        {
            "exptPart": "trial",
            "trialNumber": 98,
            "roleCurrent": "bullshitter",
            "diceSides": 10,
            "trueRoll": 3,
            "reportedRoll": 5,
            "compLie": -1,
            "compUnifLie": false,
            "compDetect": 0.5,
            "callBS": true,
            "playerTrialScore": -5,
            "oppTrialScore": 5,
            "playerTotalScore": 393,
            "oppTotalScore": 302,
            "waitTime": 2572.5984063176165,
            "responseTime": 9021,
            "catchQuestion": "What number did you roll?",
            "catchKey": -1,
            "catchResponse": -1,
            "catchResponseTime": -1,
            "trialTime": 12804
        },
        {
            "exptPart": "trial",
            "trialNumber": 99,
            "roleCurrent": "bullshitDetector",
            "diceSides": 10,
            "trueRoll": 8,
            "reportedRoll": 8,
            "compLie": 6,
            "compUnifLie": false,
            "compDetect": -1,
            "callBS": true,
            "playerTrialScore": -3,
            "oppTrialScore": 8,
            "playerTotalScore": 390,
            "oppTotalScore": 310,
            "waitTime": 5134.482468347453,
            "responseTime": 3041,
            "catchQuestion": "What number did you roll?",
            "catchKey": -1,
            "catchResponse": -1,
            "catchResponseTime": -1,
            "trialTime": 10089
        },
        {
            "exptPart": "trial",
            "trialNumber": 100,
            "roleCurrent": "bullshitter",
            "diceSides": 10,
            "trueRoll": 1,
            "reportedRoll": 7,
            "compLie": -1,
            "compUnifLie": false,
            "compDetect": 0.6818181818181818,
            "callBS": false,
            "playerTrialScore": 7,
            "oppTrialScore": 3,
            "playerTotalScore": 397,
            "oppTotalScore": 313,
            "waitTime": 2596.843388622283,
            "responseTime": 11668,
            "catchQuestion": "What number did you roll?",
            "catchKey": -1,
            "catchResponse": -1,
            "catchResponseTime": -1,
            "trialTime": 13324
        }
    ]
}