{
    "client": {
        "type": "sona",
        "experiment_id": 1505,
        "credit_token": "b20092f9d3b34a378ee654bcc50710ea",
        "survey_code": "31530",
        "sid": "sona-31530",
        "window": {
            "width": 1440,
            "height": 739
        },
        "screen": {
            "width": 1440,
            "height": 900
        },
        "userAgent": "Mozilla\/5.0 (Macintosh; Intel Mac OS X 10_15_7) AppleWebKit\/537.36 (KHTML, like Gecko) Chrome\/85.0.4183.121 Safari\/537.36",
        "score": 0,
        "bonus": 0
    },
    "expt": {
        "saveURL": "submit.simple.php",
        "trials": 100,
        "practiceTrials": 4,
        "diceSides": 10,
        "roles": [
            "bullshitter",
            "bullshitDetector"
        ],
        "roleFirst": "bullshitter",
        "allTrialProbs": [
            0.2,
            0.5,
            0.8
        ],
        "occlude": "human",
        "catchTrials": [
            32,
            54,
            48,
            94,
            61,
            5,
            76,
            55,
            12,
            39,
            38,
            68,
            22,
            99,
            71
        ],
        "stat": {
            "playerTotalScore": 338,
            "oppTotalScore": 217,
            "truth": 34,
            "truth_noBS": 12,
            "truth_BS": 22,
            "lie": 16,
            "lie_noBS": 2,
            "lie_BS": 14,
            "noBS": 24,
            "noBS_truth": 10,
            "noBS_lie": 14,
            "BS": 26,
            "BS_truth": 13,
            "BS_lie": 13
        },
        "sona": {
            "experiment_id": 1505,
            "credit_token": "b20092f9d3b34a378ee654bcc50710ea"
        },
        "debug": false
    },
    "trials": [
        {
            "exptPart": "practice",
            "trialNumber": 1,
            "roleCurrent": "bullshitter",
            "diceSides": 10,
            "trueRoll": 4,
            "reportedRoll": 8,
            "compLie": -1,
            "compUnifLie": false,
            "compDetect": 0.7727272727272727,
            "callBS": false,
            "playerTrialScore": 8,
            "oppTrialScore": 2,
            "playerTotalScore": 8,
            "oppTotalScore": 2,
            "waitTime": 2359.789405635798,
            "responseTime": 1602128388115,
            "catchQuestion": "",
            "catchKey": -1,
            "catchResponse": -1,
            "catchResponseTime": -1,
            "trialTime": 31581
        },
        {
            "exptPart": "practice",
            "trialNumber": 2,
            "roleCurrent": "bullshitDetector",
            "diceSides": 10,
            "trueRoll": 4,
            "reportedRoll": 4,
            "compLie": 2,
            "compUnifLie": false,
            "compDetect": -1,
            "callBS": true,
            "playerTrialScore": 1,
            "oppTrialScore": 4,
            "playerTotalScore": 9,
            "oppTotalScore": 6,
            "waitTime": 5337.915498487061,
            "responseTime": 15614,
            "catchQuestion": "",
            "catchKey": -1,
            "catchResponse": -1,
            "catchResponseTime": -1,
            "trialTime": 31198
        },
        {
            "exptPart": "practice",
            "trialNumber": 3,
            "roleCurrent": "bullshitter",
            "diceSides": 10,
            "trueRoll": 0,
            "reportedRoll": 0,
            "compLie": -1,
            "compUnifLie": false,
            "compDetect": 0.045454545454545456,
            "callBS": false,
            "playerTrialScore": 0,
            "oppTrialScore": 10,
            "playerTotalScore": 9,
            "oppTotalScore": 16,
            "waitTime": 2299.632807738947,
            "responseTime": 34210,
            "catchQuestion": "What number did you roll?",
            "catchKey": 0,
            "catchResponse": 0,
            "catchResponseTime": 6416,
            "trialTime": 26644
        },
        {
            "exptPart": "practice",
            "trialNumber": 4,
            "roleCurrent": "bullshitDetector",
            "diceSides": 10,
            "trueRoll": 5,
            "reportedRoll": 5,
            "compLie": 1,
            "compUnifLie": false,
            "compDetect": -1,
            "callBS": false,
            "playerTrialScore": 5,
            "oppTrialScore": 5,
            "playerTotalScore": 14,
            "oppTotalScore": 21,
            "waitTime": 6403.234912885261,
            "responseTime": 2858,
            "catchQuestion": "What number did your opponent report rolling?",
            "catchKey": 5,
            "catchResponse": 5,
            "catchResponseTime": 5138,
            "trialTime": 20978
        },
        {
            "exptPart": "trial",
            "trialNumber": 1,
            "roleCurrent": "bullshitter",
            "diceSides": 10,
            "trueRoll": 8,
            "reportedRoll": 8,
            "compLie": -1,
            "compUnifLie": false,
            "compDetect": 0.7727272727272727,
            "callBS": false,
            "playerTrialScore": 8,
            "oppTrialScore": 2,
            "playerTotalScore": 8,
            "oppTotalScore": 2,
            "waitTime": 2679.1504171348015,
            "responseTime": 109070,
            "catchQuestion": "What number did your opponent report rolling?",
            "catchKey": -1,
            "catchResponse": -1,
            "catchResponseTime": -1,
            "trialTime": 14131
        },
        {
            "exptPart": "trial",
            "trialNumber": 2,
            "roleCurrent": "bullshitDetector",
            "diceSides": 10,
            "trueRoll": 1,
            "reportedRoll": 5,
            "compLie": 5,
            "compUnifLie": false,
            "compDetect": -1,
            "callBS": false,
            "playerTrialScore": 5,
            "oppTrialScore": 5,
            "playerTotalScore": 13,
            "oppTotalScore": 7,
            "waitTime": 7142.7714047695235,
            "responseTime": 3708,
            "catchQuestion": "What number did your opponent report rolling?",
            "catchKey": -1,
            "catchResponse": -1,
            "catchResponseTime": -1,
            "trialTime": 14393
        },
        {
            "exptPart": "trial",
            "trialNumber": 3,
            "roleCurrent": "bullshitter",
            "diceSides": 10,
            "trueRoll": 4,
            "reportedRoll": 7,
            "compLie": -1,
            "compUnifLie": false,
            "compDetect": 0.6818181818181818,
            "callBS": true,
            "playerTrialScore": -5,
            "oppTrialScore": 5,
            "playerTotalScore": 8,
            "oppTotalScore": 12,
            "waitTime": 2421.7492837798554,
            "responseTime": 14669,
            "catchQuestion": "What number did your opponent report rolling?",
            "catchKey": -1,
            "catchResponse": -1,
            "catchResponseTime": -1,
            "trialTime": 13082
        },
        {
            "exptPart": "trial",
            "trialNumber": 4,
            "roleCurrent": "bullshitDetector",
            "diceSides": 10,
            "trueRoll": 10,
            "reportedRoll": 0,
            "compLie": -1,
            "compUnifLie": true,
            "compDetect": -1,
            "callBS": true,
            "playerTrialScore": 5,
            "oppTrialScore": -5,
            "playerTotalScore": 13,
            "oppTotalScore": 7,
            "waitTime": 5145.039743864746,
            "responseTime": 3711,
            "catchQuestion": "What number did your opponent report rolling?",
            "catchKey": -1,
            "catchResponse": -1,
            "catchResponseTime": -1,
            "trialTime": 11785
        },
        {
            "exptPart": "trial",
            "trialNumber": 5,
            "roleCurrent": "bullshitter",
            "diceSides": 10,
            "trueRoll": 7,
            "reportedRoll": 7,
            "compLie": -1,
            "compUnifLie": false,
            "compDetect": 0.6818181818181818,
            "callBS": false,
            "playerTrialScore": 7,
            "oppTrialScore": 3,
            "playerTotalScore": 20,
            "oppTotalScore": 10,
            "waitTime": 2820.435989323839,
            "responseTime": 19421,
            "catchQuestion": "What number did your opponent report rolling?",
            "catchKey": -1,
            "catchResponse": -1,
            "catchResponseTime": -1,
            "trialTime": 20934
        },
        {
            "exptPart": "trial",
            "trialNumber": 6,
            "roleCurrent": "bullshitDetector",
            "diceSides": 10,
            "trueRoll": 8,
            "reportedRoll": 8,
            "compLie": 3,
            "compUnifLie": false,
            "compDetect": -1,
            "callBS": false,
            "playerTrialScore": 2,
            "oppTrialScore": 8,
            "playerTotalScore": 22,
            "oppTotalScore": 18,
            "waitTime": 6791.0796227000665,
            "responseTime": 2414,
            "catchQuestion": "What number did your opponent report rolling?",
            "catchKey": 8,
            "catchResponse": 8,
            "catchResponseTime": 4113,
            "trialTime": 16018
        },
        {
            "exptPart": "trial",
            "trialNumber": 7,
            "roleCurrent": "bullshitter",
            "diceSides": 10,
            "trueRoll": 9,
            "reportedRoll": 9,
            "compLie": -1,
            "compUnifLie": false,
            "compDetect": 0.8636363636363636,
            "callBS": true,
            "playerTrialScore": 9,
            "oppTrialScore": -4,
            "playerTotalScore": 31,
            "oppTotalScore": 14,
            "waitTime": 2267.427618144825,
            "responseTime": 15225,
            "catchQuestion": "What number did your opponent report rolling?",
            "catchKey": -1,
            "catchResponse": -1,
            "catchResponseTime": -1,
            "trialTime": 10595
        },
        {
            "exptPart": "trial",
            "trialNumber": 8,
            "roleCurrent": "bullshitDetector",
            "diceSides": 10,
            "trueRoll": 2,
            "reportedRoll": 2,
            "compLie": -1,
            "compUnifLie": true,
            "compDetect": -1,
            "callBS": true,
            "playerTrialScore": 3,
            "oppTrialScore": 2,
            "playerTotalScore": 34,
            "oppTotalScore": 16,
            "waitTime": 6766.2200032028295,
            "responseTime": 5356,
            "catchQuestion": "What number did your opponent report rolling?",
            "catchKey": -1,
            "catchResponse": -1,
            "catchResponseTime": -1,
            "trialTime": 16335
        },
        {
            "exptPart": "trial",
            "trialNumber": 9,
            "roleCurrent": "bullshitter",
            "diceSides": 10,
            "trueRoll": 9,
            "reportedRoll": 9,
            "compLie": -1,
            "compUnifLie": false,
            "compDetect": 0.8636363636363636,
            "callBS": true,
            "playerTrialScore": 9,
            "oppTrialScore": -4,
            "playerTotalScore": 43,
            "oppTotalScore": 12,
            "waitTime": 2419.596999958955,
            "responseTime": 20129,
            "catchQuestion": "What number did your opponent report rolling?",
            "catchKey": -1,
            "catchResponse": -1,
            "catchResponseTime": -1,
            "trialTime": 16064
        },
        {
            "exptPart": "trial",
            "trialNumber": 10,
            "roleCurrent": "bullshitDetector",
            "diceSides": 10,
            "trueRoll": 5,
            "reportedRoll": 5,
            "compLie": 3,
            "compUnifLie": false,
            "compDetect": -1,
            "callBS": false,
            "playerTrialScore": 5,
            "oppTrialScore": 5,
            "playerTotalScore": 48,
            "oppTotalScore": 17,
            "waitTime": 6430.648921393519,
            "responseTime": 2382,
            "catchQuestion": "What number did your opponent report rolling?",
            "catchKey": -1,
            "catchResponse": -1,
            "catchResponseTime": -1,
            "trialTime": 14837
        },
        {
            "exptPart": "trial",
            "trialNumber": 11,
            "roleCurrent": "bullshitter",
            "diceSides": 10,
            "trueRoll": 10,
            "reportedRoll": 10,
            "compLie": -1,
            "compUnifLie": false,
            "compDetect": 0.9545454545454546,
            "callBS": false,
            "playerTrialScore": 10,
            "oppTrialScore": 0,
            "playerTotalScore": 58,
            "oppTotalScore": 17,
            "waitTime": 2112.448866590448,
            "responseTime": 14654,
            "catchQuestion": "What number did your opponent report rolling?",
            "catchKey": -1,
            "catchResponse": -1,
            "catchResponseTime": -1,
            "trialTime": 11373
        },
        {
            "exptPart": "trial",
            "trialNumber": 12,
            "roleCurrent": "bullshitDetector",
            "diceSides": 10,
            "trueRoll": 2,
            "reportedRoll": 4,
            "compLie": 4,
            "compUnifLie": false,
            "compDetect": -1,
            "callBS": true,
            "playerTrialScore": 5,
            "oppTrialScore": -5,
            "playerTotalScore": 63,
            "oppTotalScore": 12,
            "waitTime": 6148.597296364767,
            "responseTime": 2706,
            "catchQuestion": "What number did your opponent report rolling?",
            "catchKey": -1,
            "catchResponse": -1,
            "catchResponseTime": -1,
            "trialTime": 12172
        },
        {
            "exptPart": "trial",
            "trialNumber": 13,
            "roleCurrent": "bullshitter",
            "diceSides": 10,
            "trueRoll": 7,
            "reportedRoll": 8,
            "compLie": -1,
            "compUnifLie": false,
            "compDetect": 0.7727272727272727,
            "callBS": true,
            "playerTrialScore": -5,
            "oppTrialScore": 5,
            "playerTotalScore": 58,
            "oppTotalScore": 17,
            "waitTime": 3174.320939447355,
            "responseTime": 13457,
            "catchQuestion": "What number did you roll?",
            "catchKey": 7,
            "catchResponse": 7,
            "catchResponseTime": 5522,
            "trialTime": 18945
        },
        {
            "exptPart": "trial",
            "trialNumber": 14,
            "roleCurrent": "bullshitDetector",
            "diceSides": 10,
            "trueRoll": 5,
            "reportedRoll": 8,
            "compLie": -1,
            "compUnifLie": true,
            "compDetect": -1,
            "callBS": true,
            "playerTrialScore": 5,
            "oppTrialScore": -5,
            "playerTotalScore": 63,
            "oppTotalScore": 12,
            "waitTime": 5851.393717848154,
            "responseTime": 6543,
            "catchQuestion": "What number did you roll?",
            "catchKey": -1,
            "catchResponse": -1,
            "catchResponseTime": -1,
            "trialTime": 15187
        },
        {
            "exptPart": "trial",
            "trialNumber": 15,
            "roleCurrent": "bullshitter",
            "diceSides": 10,
            "trueRoll": 1,
            "reportedRoll": 1,
            "compLie": -1,
            "compUnifLie": false,
            "compDetect": 0.13636363636363635,
            "callBS": false,
            "playerTrialScore": 1,
            "oppTrialScore": 9,
            "playerTotalScore": 64,
            "oppTotalScore": 21,
            "waitTime": 2319.4482632006493,
            "responseTime": 15754,
            "catchQuestion": "What number did you roll?",
            "catchKey": -1,
            "catchResponse": -1,
            "catchResponseTime": -1,
            "trialTime": 13995
        },
        {
            "exptPart": "trial",
            "trialNumber": 16,
            "roleCurrent": "bullshitDetector",
            "diceSides": 10,
            "trueRoll": 5,
            "reportedRoll": 5,
            "compLie": 1,
            "compUnifLie": false,
            "compDetect": -1,
            "callBS": true,
            "playerTrialScore": 0,
            "oppTrialScore": 5,
            "playerTotalScore": 64,
            "oppTotalScore": 26,
            "waitTime": 5324.247704383093,
            "responseTime": 2523,
            "catchQuestion": "What number did you roll?",
            "catchKey": -1,
            "catchResponse": -1,
            "catchResponseTime": -1,
            "trialTime": 10468
        },
        {
            "exptPart": "trial",
            "trialNumber": 17,
            "roleCurrent": "bullshitter",
            "diceSides": 10,
            "trueRoll": 7,
            "reportedRoll": 7,
            "compLie": -1,
            "compUnifLie": false,
            "compDetect": 0.6818181818181818,
            "callBS": true,
            "playerTrialScore": 7,
            "oppTrialScore": -2,
            "playerTotalScore": 71,
            "oppTotalScore": 24,
            "waitTime": 2309.74027557497,
            "responseTime": 11167,
            "catchQuestion": "What number did you roll?",
            "catchKey": -1,
            "catchResponse": -1,
            "catchResponseTime": -1,
            "trialTime": 12643
        },
        {
            "exptPart": "trial",
            "trialNumber": 18,
            "roleCurrent": "bullshitDetector",
            "diceSides": 10,
            "trueRoll": 7,
            "reportedRoll": 10,
            "compLie": 10,
            "compUnifLie": false,
            "compDetect": -1,
            "callBS": true,
            "playerTrialScore": 5,
            "oppTrialScore": -5,
            "playerTotalScore": 76,
            "oppTotalScore": 19,
            "waitTime": 5716.501033204006,
            "responseTime": 14154,
            "catchQuestion": "What number did you roll?",
            "catchKey": -1,
            "catchResponse": -1,
            "catchResponseTime": -1,
            "trialTime": 22822
        },
        {
            "exptPart": "trial",
            "trialNumber": 19,
            "roleCurrent": "bullshitter",
            "diceSides": 10,
            "trueRoll": 1,
            "reportedRoll": 10,
            "compLie": -1,
            "compUnifLie": false,
            "compDetect": 0.9545454545454546,
            "callBS": true,
            "playerTrialScore": -5,
            "oppTrialScore": 5,
            "playerTotalScore": 71,
            "oppTotalScore": 24,
            "waitTime": 2105.190745673626,
            "responseTime": 24266,
            "catchQuestion": "What number did you roll?",
            "catchKey": -1,
            "catchResponse": -1,
            "catchResponseTime": -1,
            "trialTime": 11950
        },
        {
            "exptPart": "trial",
            "trialNumber": 20,
            "roleCurrent": "bullshitDetector",
            "diceSides": 10,
            "trueRoll": 9,
            "reportedRoll": 6,
            "compLie": -1,
            "compUnifLie": true,
            "compDetect": -1,
            "callBS": false,
            "playerTrialScore": 4,
            "oppTrialScore": 6,
            "playerTotalScore": 75,
            "oppTotalScore": 30,
            "waitTime": 6245.625829759759,
            "responseTime": 2723,
            "catchQuestion": "What number did you roll?",
            "catchKey": -1,
            "catchResponse": -1,
            "catchResponseTime": -1,
            "trialTime": 14530
        },
        {
            "exptPart": "trial",
            "trialNumber": 21,
            "roleCurrent": "bullshitter",
            "diceSides": 10,
            "trueRoll": 1,
            "reportedRoll": 1,
            "compLie": -1,
            "compUnifLie": false,
            "compDetect": 0.13636363636363635,
            "callBS": false,
            "playerTrialScore": 1,
            "oppTrialScore": 9,
            "playerTotalScore": 76,
            "oppTotalScore": 39,
            "waitTime": 2138.7357967694916,
            "responseTime": 13590,
            "catchQuestion": "What number did you roll?",
            "catchKey": -1,
            "catchResponse": -1,
            "catchResponseTime": -1,
            "trialTime": 10476
        },
        {
            "exptPart": "trial",
            "trialNumber": 22,
            "roleCurrent": "bullshitDetector",
            "diceSides": 10,
            "trueRoll": 4,
            "reportedRoll": 4,
            "compLie": 0,
            "compUnifLie": false,
            "compDetect": -1,
            "callBS": true,
            "playerTrialScore": 1,
            "oppTrialScore": 4,
            "playerTotalScore": 77,
            "oppTotalScore": 43,
            "waitTime": 5254.832369171603,
            "responseTime": 7023,
            "catchQuestion": "What number did you roll?",
            "catchKey": -1,
            "catchResponse": -1,
            "catchResponseTime": -1,
            "trialTime": 17294
        },
        {
            "exptPart": "trial",
            "trialNumber": 23,
            "roleCurrent": "bullshitter",
            "diceSides": 10,
            "trueRoll": 7,
            "reportedRoll": 7,
            "compLie": -1,
            "compUnifLie": false,
            "compDetect": 0.6818181818181818,
            "callBS": true,
            "playerTrialScore": 7,
            "oppTrialScore": -2,
            "playerTotalScore": 84,
            "oppTotalScore": 41,
            "waitTime": 3196.2253332545156,
            "responseTime": 18410,
            "catchQuestion": "What number did you roll?",
            "catchKey": 7,
            "catchResponse": 7,
            "catchResponseTime": 4091,
            "trialTime": 16960
        },
        {
            "exptPart": "trial",
            "trialNumber": 24,
            "roleCurrent": "bullshitDetector",
            "diceSides": 10,
            "trueRoll": 9,
            "reportedRoll": 9,
            "compLie": 0,
            "compUnifLie": false,
            "compDetect": -1,
            "callBS": true,
            "playerTrialScore": -4,
            "oppTrialScore": 9,
            "playerTotalScore": 80,
            "oppTotalScore": 50,
            "waitTime": 6252.7598589567,
            "responseTime": 5295,
            "catchQuestion": "What number did you roll?",
            "catchKey": -1,
            "catchResponse": -1,
            "catchResponseTime": -1,
            "trialTime": 14330
        },
        {
            "exptPart": "trial",
            "trialNumber": 25,
            "roleCurrent": "bullshitter",
            "diceSides": 10,
            "trueRoll": 8,
            "reportedRoll": 10,
            "compLie": -1,
            "compUnifLie": false,
            "compDetect": 0.9545454545454546,
            "callBS": true,
            "playerTrialScore": -5,
            "oppTrialScore": 5,
            "playerTotalScore": 75,
            "oppTotalScore": 55,
            "waitTime": 2357.135301400514,
            "responseTime": 14556,
            "catchQuestion": "What number did you roll?",
            "catchKey": -1,
            "catchResponse": -1,
            "catchResponseTime": -1,
            "trialTime": 15229
        },
        {
            "exptPart": "trial",
            "trialNumber": 26,
            "roleCurrent": "bullshitDetector",
            "diceSides": 10,
            "trueRoll": 9,
            "reportedRoll": 9,
            "compLie": 9,
            "compUnifLie": false,
            "compDetect": -1,
            "callBS": true,
            "playerTrialScore": -4,
            "oppTrialScore": 9,
            "playerTotalScore": 71,
            "oppTotalScore": 64,
            "waitTime": 7008.777574532558,
            "responseTime": 3286,
            "catchQuestion": "What number did you roll?",
            "catchKey": -1,
            "catchResponse": -1,
            "catchResponseTime": -1,
            "trialTime": 12975
        },
        {
            "exptPart": "trial",
            "trialNumber": 27,
            "roleCurrent": "bullshitter",
            "diceSides": 10,
            "trueRoll": 10,
            "reportedRoll": 10,
            "compLie": -1,
            "compUnifLie": false,
            "compDetect": 0.9545454545454546,
            "callBS": true,
            "playerTrialScore": 10,
            "oppTrialScore": -5,
            "playerTotalScore": 81,
            "oppTotalScore": 59,
            "waitTime": 2403.13361125138,
            "responseTime": 12382,
            "catchQuestion": "What number did you roll?",
            "catchKey": -1,
            "catchResponse": -1,
            "catchResponseTime": -1,
            "trialTime": 12373
        },
        {
            "exptPart": "trial",
            "trialNumber": 28,
            "roleCurrent": "bullshitDetector",
            "diceSides": 10,
            "trueRoll": 3,
            "reportedRoll": 3,
            "compLie": 1,
            "compUnifLie": false,
            "compDetect": -1,
            "callBS": false,
            "playerTrialScore": 7,
            "oppTrialScore": 3,
            "playerTotalScore": 88,
            "oppTotalScore": 62,
            "waitTime": 6018.944933734317,
            "responseTime": 3911,
            "catchQuestion": "What number did you roll?",
            "catchKey": -1,
            "catchResponse": -1,
            "catchResponseTime": -1,
            "trialTime": 14862
        },
        {
            "exptPart": "trial",
            "trialNumber": 29,
            "roleCurrent": "bullshitter",
            "diceSides": 10,
            "trueRoll": 10,
            "reportedRoll": 10,
            "compLie": -1,
            "compUnifLie": false,
            "compDetect": 0.9545454545454546,
            "callBS": true,
            "playerTrialScore": 10,
            "oppTrialScore": -5,
            "playerTotalScore": 98,
            "oppTotalScore": 57,
            "waitTime": 2222.3166868131716,
            "responseTime": 16395,
            "catchQuestion": "What number did you roll?",
            "catchKey": -1,
            "catchResponse": -1,
            "catchResponseTime": -1,
            "trialTime": 13049
        },
        {
            "exptPart": "trial",
            "trialNumber": 30,
            "roleCurrent": "bullshitDetector",
            "diceSides": 10,
            "trueRoll": 8,
            "reportedRoll": 8,
            "compLie": 5,
            "compUnifLie": false,
            "compDetect": -1,
            "callBS": true,
            "playerTrialScore": -3,
            "oppTrialScore": 8,
            "playerTotalScore": 95,
            "oppTotalScore": 65,
            "waitTime": 7444.032204336332,
            "responseTime": 4013,
            "catchQuestion": "What number did you roll?",
            "catchKey": -1,
            "catchResponse": -1,
            "catchResponseTime": -1,
            "trialTime": 17530
        },
        {
            "exptPart": "trial",
            "trialNumber": 31,
            "roleCurrent": "bullshitter",
            "diceSides": 10,
            "trueRoll": 8,
            "reportedRoll": 8,
            "compLie": -1,
            "compUnifLie": false,
            "compDetect": 0.7727272727272727,
            "callBS": true,
            "playerTrialScore": 8,
            "oppTrialScore": -3,
            "playerTotalScore": 103,
            "oppTotalScore": 62,
            "waitTime": 2677.0563738797264,
            "responseTime": 16689,
            "catchQuestion": "What number did you roll?",
            "catchKey": -1,
            "catchResponse": -1,
            "catchResponseTime": -1,
            "trialTime": 11980
        },
        {
            "exptPart": "trial",
            "trialNumber": 32,
            "roleCurrent": "bullshitDetector",
            "diceSides": 10,
            "trueRoll": 4,
            "reportedRoll": 8,
            "compLie": 8,
            "compUnifLie": false,
            "compDetect": -1,
            "callBS": true,
            "playerTrialScore": 5,
            "oppTrialScore": -5,
            "playerTotalScore": 108,
            "oppTotalScore": 57,
            "waitTime": 7248.1110214157,
            "responseTime": 2827,
            "catchQuestion": "What number did you roll?",
            "catchKey": -1,
            "catchResponse": -1,
            "catchResponseTime": -1,
            "trialTime": 12696
        },
        {
            "exptPart": "trial",
            "trialNumber": 33,
            "roleCurrent": "bullshitter",
            "diceSides": 10,
            "trueRoll": 5,
            "reportedRoll": 5,
            "compLie": -1,
            "compUnifLie": false,
            "compDetect": 0.5,
            "callBS": true,
            "playerTrialScore": 5,
            "oppTrialScore": 0,
            "playerTotalScore": 113,
            "oppTotalScore": 57,
            "waitTime": 2423.7255013592035,
            "responseTime": 11616,
            "catchQuestion": "What number did you roll?",
            "catchKey": 5,
            "catchResponse": 5,
            "catchResponseTime": 4145,
            "trialTime": 15872
        },
        {
            "exptPart": "trial",
            "trialNumber": 34,
            "roleCurrent": "bullshitDetector",
            "diceSides": 10,
            "trueRoll": 0,
            "reportedRoll": 4,
            "compLie": 4,
            "compUnifLie": false,
            "compDetect": -1,
            "callBS": false,
            "playerTrialScore": 6,
            "oppTrialScore": 4,
            "playerTotalScore": 119,
            "oppTotalScore": 61,
            "waitTime": 5196.8931324478035,
            "responseTime": 2614,
            "catchQuestion": "What number did you roll?",
            "catchKey": -1,
            "catchResponse": -1,
            "catchResponseTime": -1,
            "trialTime": 10363
        },
        {
            "exptPart": "trial",
            "trialNumber": 35,
            "roleCurrent": "bullshitter",
            "diceSides": 10,
            "trueRoll": 0,
            "reportedRoll": 0,
            "compLie": -1,
            "compUnifLie": false,
            "compDetect": 0.045454545454545456,
            "callBS": false,
            "playerTrialScore": 0,
            "oppTrialScore": 10,
            "playerTotalScore": 119,
            "oppTotalScore": 71,
            "waitTime": 2110.6697100659026,
            "responseTime": 15578,
            "catchQuestion": "What number did you roll?",
            "catchKey": -1,
            "catchResponse": -1,
            "catchResponseTime": -1,
            "trialTime": 18391
        },
        {
            "exptPart": "trial",
            "trialNumber": 36,
            "roleCurrent": "bullshitDetector",
            "diceSides": 10,
            "trueRoll": 4,
            "reportedRoll": 6,
            "compLie": 6,
            "compUnifLie": false,
            "compDetect": -1,
            "callBS": false,
            "playerTrialScore": 4,
            "oppTrialScore": 6,
            "playerTotalScore": 123,
            "oppTotalScore": 77,
            "waitTime": 5908.88179951758,
            "responseTime": 7412,
            "catchQuestion": "What number did you roll?",
            "catchKey": -1,
            "catchResponse": -1,
            "catchResponseTime": -1,
            "trialTime": 16546
        },
        {
            "exptPart": "trial",
            "trialNumber": 37,
            "roleCurrent": "bullshitter",
            "diceSides": 10,
            "trueRoll": 9,
            "reportedRoll": 9,
            "compLie": -1,
            "compUnifLie": false,
            "compDetect": 0.8636363636363636,
            "callBS": true,
            "playerTrialScore": 9,
            "oppTrialScore": -4,
            "playerTotalScore": 132,
            "oppTotalScore": 73,
            "waitTime": 2346.5198434671547,
            "responseTime": 16736,
            "catchQuestion": "What number did you roll?",
            "catchKey": -1,
            "catchResponse": -1,
            "catchResponseTime": -1,
            "trialTime": 11541
        },
        {
            "exptPart": "trial",
            "trialNumber": 38,
            "roleCurrent": "bullshitDetector",
            "diceSides": 10,
            "trueRoll": 6,
            "reportedRoll": 6,
            "compLie": 3,
            "compUnifLie": false,
            "compDetect": -1,
            "callBS": false,
            "playerTrialScore": 4,
            "oppTrialScore": 6,
            "playerTotalScore": 136,
            "oppTotalScore": 79,
            "waitTime": 5221.110782699244,
            "responseTime": 2880,
            "catchQuestion": "What number did you roll?",
            "catchKey": -1,
            "catchResponse": -1,
            "catchResponseTime": -1,
            "trialTime": 12332
        },
        {
            "exptPart": "trial",
            "trialNumber": 39,
            "roleCurrent": "bullshitter",
            "diceSides": 10,
            "trueRoll": 10,
            "reportedRoll": 10,
            "compLie": -1,
            "compUnifLie": false,
            "compDetect": 0.9545454545454546,
            "callBS": true,
            "playerTrialScore": 10,
            "oppTrialScore": -5,
            "playerTotalScore": 146,
            "oppTotalScore": 74,
            "waitTime": 2827.9442973543037,
            "responseTime": 13746,
            "catchQuestion": "What number did you roll?",
            "catchKey": 10,
            "catchResponse": 10,
            "catchResponseTime": 4210,
            "trialTime": 15447
        },
        {
            "exptPart": "trial",
            "trialNumber": 40,
            "roleCurrent": "bullshitDetector",
            "diceSides": 10,
            "trueRoll": 1,
            "reportedRoll": 2,
            "compLie": 2,
            "compUnifLie": false,
            "compDetect": -1,
            "callBS": false,
            "playerTrialScore": 8,
            "oppTrialScore": 2,
            "playerTotalScore": 154,
            "oppTotalScore": 76,
            "waitTime": 5878.589351068244,
            "responseTime": 3038,
            "catchQuestion": "What number did your opponent report rolling?",
            "catchKey": 2,
            "catchResponse": 2,
            "catchResponseTime": 4578,
            "trialTime": 60466
        },
        {
            "exptPart": "trial",
            "trialNumber": 41,
            "roleCurrent": "bullshitter",
            "diceSides": 10,
            "trueRoll": 8,
            "reportedRoll": 8,
            "compLie": -1,
            "compUnifLie": false,
            "compDetect": 0.7727272727272727,
            "callBS": true,
            "playerTrialScore": 8,
            "oppTrialScore": -3,
            "playerTotalScore": 162,
            "oppTotalScore": 73,
            "waitTime": 2569.4493151596116,
            "responseTime": 60703,
            "catchQuestion": "What number did your opponent report rolling?",
            "catchKey": -1,
            "catchResponse": -1,
            "catchResponseTime": -1,
            "trialTime": 11365
        },
        {
            "exptPart": "trial",
            "trialNumber": 42,
            "roleCurrent": "bullshitDetector",
            "diceSides": 10,
            "trueRoll": 10,
            "reportedRoll": 10,
            "compLie": 8,
            "compUnifLie": false,
            "compDetect": -1,
            "callBS": true,
            "playerTrialScore": -5,
            "oppTrialScore": 10,
            "playerTotalScore": 157,
            "oppTotalScore": 83,
            "waitTime": 5643.1273387788915,
            "responseTime": 4028,
            "catchQuestion": "What number did your opponent report rolling?",
            "catchKey": -1,
            "catchResponse": -1,
            "catchResponseTime": -1,
            "trialTime": 11900
        },
        {
            "exptPart": "trial",
            "trialNumber": 43,
            "roleCurrent": "bullshitter",
            "diceSides": 10,
            "trueRoll": 9,
            "reportedRoll": 9,
            "compLie": -1,
            "compUnifLie": false,
            "compDetect": 0.8636363636363636,
            "callBS": true,
            "playerTrialScore": 9,
            "oppTrialScore": -4,
            "playerTotalScore": 166,
            "oppTotalScore": 79,
            "waitTime": 2808.7996164672973,
            "responseTime": 12012,
            "catchQuestion": "What number did your opponent report rolling?",
            "catchKey": -1,
            "catchResponse": -1,
            "catchResponseTime": -1,
            "trialTime": 12121
        },
        {
            "exptPart": "trial",
            "trialNumber": 44,
            "roleCurrent": "bullshitDetector",
            "diceSides": 10,
            "trueRoll": 1,
            "reportedRoll": 4,
            "compLie": 4,
            "compUnifLie": false,
            "compDetect": -1,
            "callBS": false,
            "playerTrialScore": 6,
            "oppTrialScore": 4,
            "playerTotalScore": 172,
            "oppTotalScore": 83,
            "waitTime": 5872.285441300931,
            "responseTime": 1897,
            "catchQuestion": "What number did your opponent report rolling?",
            "catchKey": -1,
            "catchResponse": -1,
            "catchResponseTime": -1,
            "trialTime": 10546
        },
        {
            "exptPart": "trial",
            "trialNumber": 45,
            "roleCurrent": "bullshitter",
            "diceSides": 10,
            "trueRoll": 6,
            "reportedRoll": 8,
            "compLie": -1,
            "compUnifLie": false,
            "compDetect": 0.7727272727272727,
            "callBS": true,
            "playerTrialScore": -5,
            "oppTrialScore": 5,
            "playerTotalScore": 167,
            "oppTotalScore": 88,
            "waitTime": 2601.2468501635335,
            "responseTime": 11689,
            "catchQuestion": "What number did your opponent report rolling?",
            "catchKey": -1,
            "catchResponse": -1,
            "catchResponseTime": -1,
            "trialTime": 13230
        },
        {
            "exptPart": "trial",
            "trialNumber": 46,
            "roleCurrent": "bullshitDetector",
            "diceSides": 10,
            "trueRoll": 0,
            "reportedRoll": 6,
            "compLie": 6,
            "compUnifLie": false,
            "compDetect": -1,
            "callBS": true,
            "playerTrialScore": 5,
            "oppTrialScore": -5,
            "playerTotalScore": 172,
            "oppTotalScore": 83,
            "waitTime": 6607.411138626479,
            "responseTime": 2147,
            "catchQuestion": "What number did your opponent report rolling?",
            "catchKey": -1,
            "catchResponse": -1,
            "catchResponseTime": -1,
            "trialTime": 11422
        },
        {
            "exptPart": "trial",
            "trialNumber": 47,
            "roleCurrent": "bullshitter",
            "diceSides": 10,
            "trueRoll": 8,
            "reportedRoll": 8,
            "compLie": -1,
            "compUnifLie": false,
            "compDetect": 0.7727272727272727,
            "callBS": true,
            "playerTrialScore": 8,
            "oppTrialScore": -3,
            "playerTotalScore": 180,
            "oppTotalScore": 80,
            "waitTime": 2786.5381852927603,
            "responseTime": 10459,
            "catchQuestion": "What number did your opponent report rolling?",
            "catchKey": -1,
            "catchResponse": -1,
            "catchResponseTime": -1,
            "trialTime": 14833
        },
        {
            "exptPart": "trial",
            "trialNumber": 48,
            "roleCurrent": "bullshitDetector",
            "diceSides": 10,
            "trueRoll": 8,
            "reportedRoll": 8,
            "compLie": 3,
            "compUnifLie": false,
            "compDetect": -1,
            "callBS": true,
            "playerTrialScore": -3,
            "oppTrialScore": 8,
            "playerTotalScore": 177,
            "oppTotalScore": 88,
            "waitTime": 5841.016003435874,
            "responseTime": 2215,
            "catchQuestion": "What number did your opponent report rolling?",
            "catchKey": -1,
            "catchResponse": -1,
            "catchResponseTime": -1,
            "trialTime": 10231
        },
        {
            "exptPart": "trial",
            "trialNumber": 49,
            "roleCurrent": "bullshitter",
            "diceSides": 10,
            "trueRoll": 1,
            "reportedRoll": 9,
            "compLie": -1,
            "compUnifLie": false,
            "compDetect": 0.8636363636363636,
            "callBS": true,
            "playerTrialScore": -5,
            "oppTrialScore": 5,
            "playerTotalScore": 172,
            "oppTotalScore": 93,
            "waitTime": 2281.305014993966,
            "responseTime": 10600,
            "catchQuestion": "What number did you roll?",
            "catchKey": 1,
            "catchResponse": 1,
            "catchResponseTime": 4168,
            "trialTime": 15604
        },
        {
            "exptPart": "trial",
            "trialNumber": 50,
            "roleCurrent": "bullshitDetector",
            "diceSides": 10,
            "trueRoll": 10,
            "reportedRoll": 3,
            "compLie": -1,
            "compUnifLie": true,
            "compDetect": -1,
            "callBS": false,
            "playerTrialScore": 7,
            "oppTrialScore": 3,
            "playerTotalScore": 179,
            "oppTotalScore": 96,
            "waitTime": 7098.51750326621,
            "responseTime": 2737,
            "catchQuestion": "What number did you roll?",
            "catchKey": -1,
            "catchResponse": -1,
            "catchResponseTime": -1,
            "trialTime": 14591
        },
        {
            "exptPart": "trial",
            "trialNumber": 51,
            "roleCurrent": "bullshitter",
            "diceSides": 10,
            "trueRoll": 10,
            "reportedRoll": 10,
            "compLie": -1,
            "compUnifLie": false,
            "compDetect": 0.9545454545454546,
            "callBS": true,
            "playerTrialScore": 10,
            "oppTrialScore": -5,
            "playerTotalScore": 189,
            "oppTotalScore": 91,
            "waitTime": 2918.819876319072,
            "responseTime": 13821,
            "catchQuestion": "What number did you roll?",
            "catchKey": -1,
            "catchResponse": -1,
            "catchResponseTime": -1,
            "trialTime": 11830
        },
        {
            "exptPart": "trial",
            "trialNumber": 52,
            "roleCurrent": "bullshitDetector",
            "diceSides": 10,
            "trueRoll": 7,
            "reportedRoll": 9,
            "compLie": 9,
            "compUnifLie": false,
            "compDetect": -1,
            "callBS": true,
            "playerTrialScore": 5,
            "oppTrialScore": -5,
            "playerTotalScore": 194,
            "oppTotalScore": 86,
            "waitTime": 5767.197773412407,
            "responseTime": 2059,
            "catchQuestion": "What number did you roll?",
            "catchKey": -1,
            "catchResponse": -1,
            "catchResponseTime": -1,
            "trialTime": 10285
        },
        {
            "exptPart": "trial",
            "trialNumber": 53,
            "roleCurrent": "bullshitter",
            "diceSides": 10,
            "trueRoll": 1,
            "reportedRoll": 9,
            "compLie": -1,
            "compUnifLie": false,
            "compDetect": 0.8636363636363636,
            "callBS": true,
            "playerTrialScore": -5,
            "oppTrialScore": 5,
            "playerTotalScore": 189,
            "oppTotalScore": 91,
            "waitTime": 2447.679702127456,
            "responseTime": 11959,
            "catchQuestion": "What number did you roll?",
            "catchKey": -1,
            "catchResponse": -1,
            "catchResponseTime": -1,
            "trialTime": 12271
        },
        {
            "exptPart": "trial",
            "trialNumber": 54,
            "roleCurrent": "bullshitDetector",
            "diceSides": 10,
            "trueRoll": 4,
            "reportedRoll": 5,
            "compLie": 5,
            "compUnifLie": false,
            "compDetect": -1,
            "callBS": false,
            "playerTrialScore": 5,
            "oppTrialScore": 5,
            "playerTotalScore": 194,
            "oppTotalScore": 96,
            "waitTime": 6192.24914515523,
            "responseTime": 2179,
            "catchQuestion": "What number did you roll?",
            "catchKey": -1,
            "catchResponse": -1,
            "catchResponseTime": -1,
            "trialTime": 10800
        },
        {
            "exptPart": "trial",
            "trialNumber": 55,
            "roleCurrent": "bullshitter",
            "diceSides": 10,
            "trueRoll": 6,
            "reportedRoll": 6,
            "compLie": -1,
            "compUnifLie": false,
            "compDetect": 0.5909090909090909,
            "callBS": false,
            "playerTrialScore": 6,
            "oppTrialScore": 4,
            "playerTotalScore": 200,
            "oppTotalScore": 100,
            "waitTime": 2280.84998530386,
            "responseTime": 12653,
            "catchQuestion": "What number did you roll?",
            "catchKey": 6,
            "catchResponse": 6,
            "catchResponseTime": 3865,
            "trialTime": 60083
        },
        {
            "exptPart": "trial",
            "trialNumber": 56,
            "roleCurrent": "bullshitDetector",
            "diceSides": 10,
            "trueRoll": 10,
            "reportedRoll": 10,
            "compLie": 0,
            "compUnifLie": false,
            "compDetect": -1,
            "callBS": true,
            "playerTrialScore": -5,
            "oppTrialScore": 10,
            "playerTotalScore": 195,
            "oppTotalScore": 110,
            "waitTime": 5403.279018319649,
            "responseTime": 2961,
            "catchQuestion": "What number did your opponent report rolling?",
            "catchKey": 10,
            "catchResponse": 10,
            "catchResponseTime": 4313,
            "trialTime": 14855
        },
        {
            "exptPart": "trial",
            "trialNumber": 57,
            "roleCurrent": "bullshitter",
            "diceSides": 10,
            "trueRoll": 3,
            "reportedRoll": 7,
            "compLie": -1,
            "compUnifLie": false,
            "compDetect": 0.6818181818181818,
            "callBS": true,
            "playerTrialScore": -5,
            "oppTrialScore": 5,
            "playerTotalScore": 190,
            "oppTotalScore": 115,
            "waitTime": 2194.777059308026,
            "responseTime": 17093,
            "catchQuestion": "What number did your opponent report rolling?",
            "catchKey": -1,
            "catchResponse": -1,
            "catchResponseTime": -1,
            "trialTime": 12173
        },
        {
            "exptPart": "trial",
            "trialNumber": 58,
            "roleCurrent": "bullshitDetector",
            "diceSides": 10,
            "trueRoll": 9,
            "reportedRoll": 9,
            "compLie": 0,
            "compUnifLie": false,
            "compDetect": -1,
            "callBS": true,
            "playerTrialScore": -4,
            "oppTrialScore": 9,
            "playerTotalScore": 186,
            "oppTotalScore": 124,
            "waitTime": 5913.512784601779,
            "responseTime": 2721,
            "catchQuestion": "What number did your opponent report rolling?",
            "catchKey": -1,
            "catchResponse": -1,
            "catchResponseTime": -1,
            "trialTime": 11054
        },
        {
            "exptPart": "trial",
            "trialNumber": 59,
            "roleCurrent": "bullshitter",
            "diceSides": 10,
            "trueRoll": 7,
            "reportedRoll": 7,
            "compLie": -1,
            "compUnifLie": false,
            "compDetect": 0.6818181818181818,
            "callBS": true,
            "playerTrialScore": 7,
            "oppTrialScore": -2,
            "playerTotalScore": 193,
            "oppTotalScore": 122,
            "waitTime": 3172.551280526882,
            "responseTime": 11944,
            "catchQuestion": "What number did your opponent report rolling?",
            "catchKey": -1,
            "catchResponse": -1,
            "catchResponseTime": -1,
            "trialTime": 11815
        },
        {
            "exptPart": "trial",
            "trialNumber": 60,
            "roleCurrent": "bullshitDetector",
            "diceSides": 10,
            "trueRoll": 6,
            "reportedRoll": 3,
            "compLie": -1,
            "compUnifLie": true,
            "compDetect": -1,
            "callBS": false,
            "playerTrialScore": 7,
            "oppTrialScore": 3,
            "playerTotalScore": 200,
            "oppTotalScore": 125,
            "waitTime": 5633.505133506335,
            "responseTime": 2795,
            "catchQuestion": "What number did your opponent report rolling?",
            "catchKey": -1,
            "catchResponse": -1,
            "catchResponseTime": -1,
            "trialTime": 13129
        },
        {
            "exptPart": "trial",
            "trialNumber": 61,
            "roleCurrent": "bullshitter",
            "diceSides": 10,
            "trueRoll": 8,
            "reportedRoll": 8,
            "compLie": -1,
            "compUnifLie": false,
            "compDetect": 0.7727272727272727,
            "callBS": true,
            "playerTrialScore": 8,
            "oppTrialScore": -3,
            "playerTotalScore": 208,
            "oppTotalScore": 122,
            "waitTime": 3139.060596138204,
            "responseTime": 13900,
            "catchQuestion": "What number did your opponent report rolling?",
            "catchKey": -1,
            "catchResponse": -1,
            "catchResponseTime": -1,
            "trialTime": 12058
        },
        {
            "exptPart": "trial",
            "trialNumber": 62,
            "roleCurrent": "bullshitDetector",
            "diceSides": 10,
            "trueRoll": 9,
            "reportedRoll": 3,
            "compLie": -1,
            "compUnifLie": true,
            "compDetect": -1,
            "callBS": false,
            "playerTrialScore": 7,
            "oppTrialScore": 3,
            "playerTotalScore": 215,
            "oppTotalScore": 125,
            "waitTime": 7268.380237817849,
            "responseTime": 2402,
            "catchQuestion": "What number did your opponent report rolling?",
            "catchKey": 3,
            "catchResponse": 3,
            "catchResponseTime": 3296,
            "trialTime": 15332
        },
        {
            "exptPart": "trial",
            "trialNumber": 63,
            "roleCurrent": "bullshitter",
            "diceSides": 10,
            "trueRoll": 5,
            "reportedRoll": 10,
            "compLie": -1,
            "compUnifLie": false,
            "compDetect": 0.9545454545454546,
            "callBS": true,
            "playerTrialScore": -5,
            "oppTrialScore": 5,
            "playerTotalScore": 210,
            "oppTotalScore": 130,
            "waitTime": 3040.423140133883,
            "responseTime": 15806,
            "catchQuestion": "What number did your opponent report rolling?",
            "catchKey": -1,
            "catchResponse": -1,
            "catchResponseTime": -1,
            "trialTime": 13065
        },
        {
            "exptPart": "trial",
            "trialNumber": 64,
            "roleCurrent": "bullshitDetector",
            "diceSides": 10,
            "trueRoll": 10,
            "reportedRoll": 10,
            "compLie": 0,
            "compUnifLie": false,
            "compDetect": -1,
            "callBS": true,
            "playerTrialScore": -5,
            "oppTrialScore": 10,
            "playerTotalScore": 205,
            "oppTotalScore": 140,
            "waitTime": 5808.289229264537,
            "responseTime": 4953,
            "catchQuestion": "What number did your opponent report rolling?",
            "catchKey": -1,
            "catchResponse": -1,
            "catchResponseTime": -1,
            "trialTime": 13994
        },
        {
            "exptPart": "trial",
            "trialNumber": 65,
            "roleCurrent": "bullshitter",
            "diceSides": 10,
            "trueRoll": 4,
            "reportedRoll": 4,
            "compLie": -1,
            "compUnifLie": false,
            "compDetect": 0.4090909090909091,
            "callBS": false,
            "playerTrialScore": 4,
            "oppTrialScore": 6,
            "playerTotalScore": 209,
            "oppTotalScore": 146,
            "waitTime": 2248.303346563514,
            "responseTime": 15707,
            "catchQuestion": "What number did your opponent report rolling?",
            "catchKey": -1,
            "catchResponse": -1,
            "catchResponseTime": -1,
            "trialTime": 13728
        },
        {
            "exptPart": "trial",
            "trialNumber": 66,
            "roleCurrent": "bullshitDetector",
            "diceSides": 10,
            "trueRoll": 3,
            "reportedRoll": 3,
            "compLie": 0,
            "compUnifLie": false,
            "compDetect": -1,
            "callBS": false,
            "playerTrialScore": 7,
            "oppTrialScore": 3,
            "playerTotalScore": 216,
            "oppTotalScore": 149,
            "waitTime": 5617.0646197357455,
            "responseTime": 2536,
            "catchQuestion": "What number did your opponent report rolling?",
            "catchKey": -1,
            "catchResponse": -1,
            "catchResponseTime": -1,
            "trialTime": 10893
        },
        {
            "exptPart": "trial",
            "trialNumber": 67,
            "roleCurrent": "bullshitter",
            "diceSides": 10,
            "trueRoll": 2,
            "reportedRoll": 8,
            "compLie": -1,
            "compUnifLie": false,
            "compDetect": 0.7727272727272727,
            "callBS": true,
            "playerTrialScore": -5,
            "oppTrialScore": 5,
            "playerTotalScore": 211,
            "oppTotalScore": 154,
            "waitTime": 2480.2847437197984,
            "responseTime": 11913,
            "catchQuestion": "What number did your opponent report rolling?",
            "catchKey": -1,
            "catchResponse": -1,
            "catchResponseTime": -1,
            "trialTime": 11595
        },
        {
            "exptPart": "trial",
            "trialNumber": 68,
            "roleCurrent": "bullshitDetector",
            "diceSides": 10,
            "trueRoll": 5,
            "reportedRoll": 6,
            "compLie": 6,
            "compUnifLie": false,
            "compDetect": -1,
            "callBS": false,
            "playerTrialScore": 4,
            "oppTrialScore": 6,
            "playerTotalScore": 215,
            "oppTotalScore": 160,
            "waitTime": 6769.62570874051,
            "responseTime": 3392,
            "catchQuestion": "What number did your opponent report rolling?",
            "catchKey": -1,
            "catchResponse": -1,
            "catchResponseTime": -1,
            "trialTime": 13350
        },
        {
            "exptPart": "trial",
            "trialNumber": 69,
            "roleCurrent": "bullshitter",
            "diceSides": 10,
            "trueRoll": 1,
            "reportedRoll": 10,
            "compLie": -1,
            "compUnifLie": false,
            "compDetect": 0.9545454545454546,
            "callBS": true,
            "playerTrialScore": -5,
            "oppTrialScore": 5,
            "playerTotalScore": 210,
            "oppTotalScore": 165,
            "waitTime": 2393.558910400642,
            "responseTime": 12672,
            "catchQuestion": "What number did you roll?",
            "catchKey": 1,
            "catchResponse": 1,
            "catchResponseTime": 3704,
            "trialTime": 14895
        },
        {
            "exptPart": "trial",
            "trialNumber": 70,
            "roleCurrent": "bullshitDetector",
            "diceSides": 10,
            "trueRoll": 1,
            "reportedRoll": 3,
            "compLie": 3,
            "compUnifLie": false,
            "compDetect": -1,
            "callBS": false,
            "playerTrialScore": 7,
            "oppTrialScore": 3,
            "playerTotalScore": 217,
            "oppTotalScore": 168,
            "waitTime": 6428.7788235589305,
            "responseTime": 1958,
            "catchQuestion": "What number did you roll?",
            "catchKey": -1,
            "catchResponse": -1,
            "catchResponseTime": -1,
            "trialTime": 15145
        },
        {
            "exptPart": "trial",
            "trialNumber": 71,
            "roleCurrent": "bullshitter",
            "diceSides": 10,
            "trueRoll": 9,
            "reportedRoll": 9,
            "compLie": -1,
            "compUnifLie": false,
            "compDetect": 0.8636363636363636,
            "callBS": true,
            "playerTrialScore": 9,
            "oppTrialScore": -4,
            "playerTotalScore": 226,
            "oppTotalScore": 164,
            "waitTime": 2581.1136698942923,
            "responseTime": 14292,
            "catchQuestion": "What number did you roll?",
            "catchKey": -1,
            "catchResponse": -1,
            "catchResponseTime": -1,
            "trialTime": 10738
        },
        {
            "exptPart": "trial",
            "trialNumber": 72,
            "roleCurrent": "bullshitDetector",
            "diceSides": 10,
            "trueRoll": 0,
            "reportedRoll": 3,
            "compLie": 3,
            "compUnifLie": false,
            "compDetect": -1,
            "callBS": false,
            "playerTrialScore": 7,
            "oppTrialScore": 3,
            "playerTotalScore": 233,
            "oppTotalScore": 167,
            "waitTime": 6343.928737249713,
            "responseTime": 1850,
            "catchQuestion": "What number did your opponent report rolling?",
            "catchKey": 3,
            "catchResponse": 3,
            "catchResponseTime": 3537,
            "trialTime": 13750
        },
        {
            "exptPart": "trial",
            "trialNumber": 73,
            "roleCurrent": "bullshitter",
            "diceSides": 10,
            "trueRoll": 0,
            "reportedRoll": 8,
            "compLie": -1,
            "compUnifLie": false,
            "compDetect": 0.7727272727272727,
            "callBS": true,
            "playerTrialScore": -5,
            "oppTrialScore": 5,
            "playerTotalScore": 228,
            "oppTotalScore": 172,
            "waitTime": 2150.349153833021,
            "responseTime": 12771,
            "catchQuestion": "What number did your opponent report rolling?",
            "catchKey": -1,
            "catchResponse": -1,
            "catchResponseTime": -1,
            "trialTime": 16989
        },
        {
            "exptPart": "trial",
            "trialNumber": 74,
            "roleCurrent": "bullshitDetector",
            "diceSides": 10,
            "trueRoll": 5,
            "reportedRoll": 5,
            "compLie": 3,
            "compUnifLie": false,
            "compDetect": -1,
            "callBS": false,
            "playerTrialScore": 5,
            "oppTrialScore": 5,
            "playerTotalScore": 233,
            "oppTotalScore": 177,
            "waitTime": 6695.848771682407,
            "responseTime": 2440,
            "catchQuestion": "What number did your opponent report rolling?",
            "catchKey": -1,
            "catchResponse": -1,
            "catchResponseTime": -1,
            "trialTime": 11587
        },
        {
            "exptPart": "trial",
            "trialNumber": 75,
            "roleCurrent": "bullshitter",
            "diceSides": 10,
            "trueRoll": 2,
            "reportedRoll": 7,
            "compLie": -1,
            "compUnifLie": false,
            "compDetect": 0.6818181818181818,
            "callBS": true,
            "playerTrialScore": -5,
            "oppTrialScore": 5,
            "playerTotalScore": 228,
            "oppTotalScore": 182,
            "waitTime": 2079.4391239253546,
            "responseTime": 12893,
            "catchQuestion": "What number did your opponent report rolling?",
            "catchKey": -1,
            "catchResponse": -1,
            "catchResponseTime": -1,
            "trialTime": 20396
        },
        {
            "exptPart": "trial",
            "trialNumber": 76,
            "roleCurrent": "bullshitDetector",
            "diceSides": 10,
            "trueRoll": 0,
            "reportedRoll": 10,
            "compLie": 10,
            "compUnifLie": false,
            "compDetect": -1,
            "callBS": true,
            "playerTrialScore": 5,
            "oppTrialScore": -5,
            "playerTotalScore": 233,
            "oppTotalScore": 177,
            "waitTime": 6080.527975248236,
            "responseTime": 2906,
            "catchQuestion": "What number did your opponent report rolling?",
            "catchKey": -1,
            "catchResponse": -1,
            "catchResponseTime": -1,
            "trialTime": 11407
        },
        {
            "exptPart": "trial",
            "trialNumber": 77,
            "roleCurrent": "bullshitter",
            "diceSides": 10,
            "trueRoll": 3,
            "reportedRoll": 3,
            "compLie": -1,
            "compUnifLie": false,
            "compDetect": 0.3181818181818182,
            "callBS": false,
            "playerTrialScore": 3,
            "oppTrialScore": 7,
            "playerTotalScore": 236,
            "oppTotalScore": 184,
            "waitTime": 2525.7300390881237,
            "responseTime": 11492,
            "catchQuestion": "What number did you roll?",
            "catchKey": 3,
            "catchResponse": 3,
            "catchResponseTime": 3084,
            "trialTime": 14313
        },
        {
            "exptPart": "trial",
            "trialNumber": 78,
            "roleCurrent": "bullshitDetector",
            "diceSides": 10,
            "trueRoll": 4,
            "reportedRoll": 4,
            "compLie": 2,
            "compUnifLie": false,
            "compDetect": -1,
            "callBS": false,
            "playerTrialScore": 6,
            "oppTrialScore": 4,
            "playerTotalScore": 242,
            "oppTotalScore": 188,
            "waitTime": 6661.920900064804,
            "responseTime": 1745,
            "catchQuestion": "What number did you roll?",
            "catchKey": -1,
            "catchResponse": -1,
            "catchResponseTime": -1,
            "trialTime": 10604
        },
        {
            "exptPart": "trial",
            "trialNumber": 79,
            "roleCurrent": "bullshitter",
            "diceSides": 10,
            "trueRoll": 8,
            "reportedRoll": 8,
            "compLie": -1,
            "compUnifLie": false,
            "compDetect": 0.7727272727272727,
            "callBS": true,
            "playerTrialScore": 8,
            "oppTrialScore": -3,
            "playerTotalScore": 250,
            "oppTotalScore": 185,
            "waitTime": 3248.084456240994,
            "responseTime": 9721,
            "catchQuestion": "What number did you roll?",
            "catchKey": -1,
            "catchResponse": -1,
            "catchResponseTime": -1,
            "trialTime": 11770
        },
        {
            "exptPart": "trial",
            "trialNumber": 80,
            "roleCurrent": "bullshitDetector",
            "diceSides": 10,
            "trueRoll": 3,
            "reportedRoll": 3,
            "compLie": 1,
            "compUnifLie": false,
            "compDetect": -1,
            "callBS": false,
            "playerTrialScore": 7,
            "oppTrialScore": 3,
            "playerTotalScore": 257,
            "oppTotalScore": 188,
            "waitTime": 5145.552514733361,
            "responseTime": 1797,
            "catchQuestion": "What number did you roll?",
            "catchKey": -1,
            "catchResponse": -1,
            "catchResponseTime": -1,
            "trialTime": 11405
        },
        {
            "exptPart": "trial",
            "trialNumber": 81,
            "roleCurrent": "bullshitter",
            "diceSides": 10,
            "trueRoll": 1,
            "reportedRoll": 1,
            "compLie": -1,
            "compUnifLie": false,
            "compDetect": 0.13636363636363635,
            "callBS": false,
            "playerTrialScore": 1,
            "oppTrialScore": 9,
            "playerTotalScore": 258,
            "oppTotalScore": 197,
            "waitTime": 2986.9541724258124,
            "responseTime": 17131,
            "catchQuestion": "What number did you roll?",
            "catchKey": -1,
            "catchResponse": -1,
            "catchResponseTime": -1,
            "trialTime": 15965
        },
        {
            "exptPart": "trial",
            "trialNumber": 82,
            "roleCurrent": "bullshitDetector",
            "diceSides": 10,
            "trueRoll": 5,
            "reportedRoll": 5,
            "compLie": 5,
            "compUnifLie": false,
            "compDetect": -1,
            "callBS": false,
            "playerTrialScore": 5,
            "oppTrialScore": 5,
            "playerTotalScore": 263,
            "oppTotalScore": 202,
            "waitTime": 6593.589872609483,
            "responseTime": 1600,
            "catchQuestion": "What number did you roll?",
            "catchKey": -1,
            "catchResponse": -1,
            "catchResponseTime": -1,
            "trialTime": 10427
        },
        {
            "exptPart": "trial",
            "trialNumber": 83,
            "roleCurrent": "bullshitter",
            "diceSides": 10,
            "trueRoll": 6,
            "reportedRoll": 6,
            "compLie": -1,
            "compUnifLie": false,
            "compDetect": 0.5909090909090909,
            "callBS": false,
            "playerTrialScore": 6,
            "oppTrialScore": 4,
            "playerTotalScore": 269,
            "oppTotalScore": 206,
            "waitTime": 2384.290029394264,
            "responseTime": 10992,
            "catchQuestion": "What number did you roll?",
            "catchKey": -1,
            "catchResponse": -1,
            "catchResponseTime": -1,
            "trialTime": 12136
        },
        {
            "exptPart": "trial",
            "trialNumber": 84,
            "roleCurrent": "bullshitDetector",
            "diceSides": 10,
            "trueRoll": 9,
            "reportedRoll": 9,
            "compLie": 3,
            "compUnifLie": false,
            "compDetect": -1,
            "callBS": true,
            "playerTrialScore": -4,
            "oppTrialScore": 9,
            "playerTotalScore": 265,
            "oppTotalScore": 215,
            "waitTime": 6699.700883007489,
            "responseTime": 1934,
            "catchQuestion": "What number did you roll?",
            "catchKey": -1,
            "catchResponse": -1,
            "catchResponseTime": -1,
            "trialTime": 11421
        },
        {
            "exptPart": "trial",
            "trialNumber": 85,
            "roleCurrent": "bullshitter",
            "diceSides": 10,
            "trueRoll": 0,
            "reportedRoll": 0,
            "compLie": -1,
            "compUnifLie": false,
            "compDetect": 0.045454545454545456,
            "callBS": false,
            "playerTrialScore": 0,
            "oppTrialScore": 10,
            "playerTotalScore": 265,
            "oppTotalScore": 225,
            "waitTime": 2092.8156673012218,
            "responseTime": 14438,
            "catchQuestion": "What number did you roll?",
            "catchKey": -1,
            "catchResponse": -1,
            "catchResponseTime": -1,
            "trialTime": 16128
        },
        {
            "exptPart": "trial",
            "trialNumber": 86,
            "roleCurrent": "bullshitDetector",
            "diceSides": 10,
            "trueRoll": 4,
            "reportedRoll": 4,
            "compLie": 4,
            "compUnifLie": false,
            "compDetect": -1,
            "callBS": false,
            "playerTrialScore": 6,
            "oppTrialScore": 4,
            "playerTotalScore": 271,
            "oppTotalScore": 229,
            "waitTime": 6929.589743491289,
            "responseTime": 1969,
            "catchQuestion": "What number did you roll?",
            "catchKey": -1,
            "catchResponse": -1,
            "catchResponseTime": -1,
            "trialTime": 10966
        },
        {
            "exptPart": "trial",
            "trialNumber": 87,
            "roleCurrent": "bullshitter",
            "diceSides": 10,
            "trueRoll": 10,
            "reportedRoll": 10,
            "compLie": -1,
            "compUnifLie": false,
            "compDetect": 0.9545454545454546,
            "callBS": true,
            "playerTrialScore": 10,
            "oppTrialScore": -5,
            "playerTotalScore": 281,
            "oppTotalScore": 224,
            "waitTime": 2373.2616005103982,
            "responseTime": 9834,
            "catchQuestion": "What number did you roll?",
            "catchKey": -1,
            "catchResponse": -1,
            "catchResponseTime": -1,
            "trialTime": 10466
        },
        {
            "exptPart": "trial",
            "trialNumber": 88,
            "roleCurrent": "bullshitDetector",
            "diceSides": 10,
            "trueRoll": 1,
            "reportedRoll": 10,
            "compLie": 10,
            "compUnifLie": false,
            "compDetect": -1,
            "callBS": true,
            "playerTrialScore": 5,
            "oppTrialScore": -5,
            "playerTotalScore": 286,
            "oppTotalScore": 219,
            "waitTime": 6755.817039093861,
            "responseTime": 3598,
            "catchQuestion": "What number did you roll?",
            "catchKey": -1,
            "catchResponse": -1,
            "catchResponseTime": -1,
            "trialTime": 12719
        },
        {
            "exptPart": "trial",
            "trialNumber": 89,
            "roleCurrent": "bullshitter",
            "diceSides": 10,
            "trueRoll": 3,
            "reportedRoll": 6,
            "compLie": -1,
            "compUnifLie": false,
            "compDetect": 0.5909090909090909,
            "callBS": false,
            "playerTrialScore": 6,
            "oppTrialScore": 4,
            "playerTotalScore": 292,
            "oppTotalScore": 223,
            "waitTime": 2704.6613595154113,
            "responseTime": 12161,
            "catchQuestion": "What number did you roll?",
            "catchKey": -1,
            "catchResponse": -1,
            "catchResponseTime": -1,
            "trialTime": 12305
        },
        {
            "exptPart": "trial",
            "trialNumber": 90,
            "roleCurrent": "bullshitDetector",
            "diceSides": 10,
            "trueRoll": 0,
            "reportedRoll": 5,
            "compLie": 5,
            "compUnifLie": false,
            "compDetect": -1,
            "callBS": false,
            "playerTrialScore": 5,
            "oppTrialScore": 5,
            "playerTotalScore": 297,
            "oppTotalScore": 228,
            "waitTime": 6542.342303919075,
            "responseTime": 1786,
            "catchQuestion": "What number did you roll?",
            "catchKey": -1,
            "catchResponse": -1,
            "catchResponseTime": -1,
            "trialTime": 13527
        },
        {
            "exptPart": "trial",
            "trialNumber": 91,
            "roleCurrent": "bullshitter",
            "diceSides": 10,
            "trueRoll": 0,
            "reportedRoll": 5,
            "compLie": -1,
            "compUnifLie": false,
            "compDetect": 0.5,
            "callBS": false,
            "playerTrialScore": 5,
            "oppTrialScore": 5,
            "playerTotalScore": 302,
            "oppTotalScore": 233,
            "waitTime": 2649.152255566692,
            "responseTime": 17437,
            "catchQuestion": "What number did you roll?",
            "catchKey": -1,
            "catchResponse": -1,
            "catchResponseTime": -1,
            "trialTime": 15438
        },
        {
            "exptPart": "trial",
            "trialNumber": 92,
            "roleCurrent": "bullshitDetector",
            "diceSides": 10,
            "trueRoll": 10,
            "reportedRoll": 8,
            "compLie": -1,
            "compUnifLie": true,
            "compDetect": -1,
            "callBS": true,
            "playerTrialScore": 5,
            "oppTrialScore": -5,
            "playerTotalScore": 307,
            "oppTotalScore": 228,
            "waitTime": 5583.943957744843,
            "responseTime": 1985,
            "catchQuestion": "What number did you roll?",
            "catchKey": -1,
            "catchResponse": -1,
            "catchResponseTime": -1,
            "trialTime": 10015
        },
        {
            "exptPart": "trial",
            "trialNumber": 93,
            "roleCurrent": "bullshitter",
            "diceSides": 10,
            "trueRoll": 6,
            "reportedRoll": 6,
            "compLie": -1,
            "compUnifLie": false,
            "compDetect": 0.5909090909090909,
            "callBS": true,
            "playerTrialScore": 6,
            "oppTrialScore": -1,
            "playerTotalScore": 313,
            "oppTotalScore": 227,
            "waitTime": 2406.8185957102132,
            "responseTime": 10099,
            "catchQuestion": "What number did you roll?",
            "catchKey": -1,
            "catchResponse": -1,
            "catchResponseTime": -1,
            "trialTime": 10394
        },
        {
            "exptPart": "trial",
            "trialNumber": 94,
            "roleCurrent": "bullshitDetector",
            "diceSides": 10,
            "trueRoll": 0,
            "reportedRoll": 6,
            "compLie": 6,
            "compUnifLie": false,
            "compDetect": -1,
            "callBS": true,
            "playerTrialScore": 5,
            "oppTrialScore": -5,
            "playerTotalScore": 318,
            "oppTotalScore": 222,
            "waitTime": 5346.350535253248,
            "responseTime": 4425,
            "catchQuestion": "What number did you roll?",
            "catchKey": -1,
            "catchResponse": -1,
            "catchResponseTime": -1,
            "trialTime": 12116
        },
        {
            "exptPart": "trial",
            "trialNumber": 95,
            "roleCurrent": "bullshitter",
            "diceSides": 10,
            "trueRoll": 4,
            "reportedRoll": 9,
            "compLie": -1,
            "compUnifLie": false,
            "compDetect": 0.8636363636363636,
            "callBS": true,
            "playerTrialScore": -5,
            "oppTrialScore": 5,
            "playerTotalScore": 313,
            "oppTotalScore": 227,
            "waitTime": 3053.09203768729,
            "responseTime": 13237,
            "catchQuestion": "What number did you roll?",
            "catchKey": 4,
            "catchResponse": 4,
            "catchResponseTime": 3314,
            "trialTime": 60434
        },
        {
            "exptPart": "trial",
            "trialNumber": 96,
            "roleCurrent": "bullshitDetector",
            "diceSides": 10,
            "trueRoll": 1,
            "reportedRoll": 6,
            "compLie": 6,
            "compUnifLie": false,
            "compDetect": -1,
            "callBS": true,
            "playerTrialScore": 5,
            "oppTrialScore": -5,
            "playerTotalScore": 318,
            "oppTotalScore": 222,
            "waitTime": 7409.884766394083,
            "responseTime": 2067,
            "catchQuestion": "What number did you roll?",
            "catchKey": -1,
            "catchResponse": -1,
            "catchResponseTime": -1,
            "trialTime": 11604
        },
        {
            "exptPart": "trial",
            "trialNumber": 97,
            "roleCurrent": "bullshitter",
            "diceSides": 10,
            "trueRoll": 9,
            "reportedRoll": 9,
            "compLie": -1,
            "compUnifLie": false,
            "compDetect": 0.8636363636363636,
            "callBS": true,
            "playerTrialScore": 9,
            "oppTrialScore": -4,
            "playerTotalScore": 327,
            "oppTotalScore": 218,
            "waitTime": 2569.544289859351,
            "responseTime": 10258,
            "catchQuestion": "What number did you roll?",
            "catchKey": -1,
            "catchResponse": -1,
            "catchResponseTime": -1,
            "trialTime": 11479
        },
        {
            "exptPart": "trial",
            "trialNumber": 98,
            "roleCurrent": "bullshitDetector",
            "diceSides": 10,
            "trueRoll": 1,
            "reportedRoll": 7,
            "compLie": 7,
            "compUnifLie": false,
            "compDetect": -1,
            "callBS": true,
            "playerTrialScore": 5,
            "oppTrialScore": -5,
            "playerTotalScore": 332,
            "oppTotalScore": 213,
            "waitTime": 5577.013483893842,
            "responseTime": 3347,
            "catchQuestion": "What number did you roll?",
            "catchKey": -1,
            "catchResponse": -1,
            "catchResponseTime": -1,
            "trialTime": 10836
        },
        {
            "exptPart": "trial",
            "trialNumber": 99,
            "roleCurrent": "bullshitter",
            "diceSides": 10,
            "trueRoll": 8,
            "reportedRoll": 8,
            "compLie": -1,
            "compUnifLie": false,
            "compDetect": 0.7727272727272727,
            "callBS": true,
            "playerTrialScore": 8,
            "oppTrialScore": -3,
            "playerTotalScore": 340,
            "oppTotalScore": 210,
            "waitTime": 2327.440486091569,
            "responseTime": 10891,
            "catchQuestion": "What number did you roll?",
            "catchKey": -1,
            "catchResponse": -1,
            "catchResponseTime": -1,
            "trialTime": 10627
        },
        {
            "exptPart": "trial",
            "trialNumber": 100,
            "roleCurrent": "bullshitDetector",
            "diceSides": 10,
            "trueRoll": 7,
            "reportedRoll": 7,
            "compLie": 2,
            "compUnifLie": false,
            "compDetect": -1,
            "callBS": true,
            "playerTrialScore": -2,
            "oppTrialScore": 7,
            "playerTotalScore": 338,
            "oppTotalScore": 217,
            "waitTime": 6403.563795830867,
            "responseTime": 2567,
            "catchQuestion": "What number did your opponent report rolling?",
            "catchKey": 7,
            "catchResponse": 7,
            "catchResponseTime": 3676,
            "trialTime": 155634
        }
    ]
}