{
    "client": {
        "type": "sona",
        "experiment_id": 1505,
        "credit_token": "b20092f9d3b34a378ee654bcc50710ea",
        "survey_code": "35882",
        "sid": "sona-35882",
        "window": {
            "width": 1215,
            "height": 746
        },
        "screen": {
            "width": 1440,
            "height": 900
        },
        "userAgent": "Mozilla\/5.0 (Macintosh; Intel Mac OS X 10_13_4) AppleWebKit\/605.1.15 (KHTML, like Gecko) Version\/11.1 Safari\/605.1.15",
        "score": 0,
        "bonus": 0
    },
    "expt": {
        "saveURL": "submit.simple.php",
        "trials": 100,
        "practiceTrials": 4,
        "diceSides": 10,
        "roles": [
            "bullshitter",
            "bullshitDetector"
        ],
        "roleFirst": "bullshitDetector",
        "allTrialProbs": [
            0.2,
            0.5,
            0.8
        ],
        "occlude": "human",
        "catchTrials": [
            4,
            64,
            48,
            26,
            15,
            66,
            6,
            23,
            85,
            94,
            69,
            35,
            56,
            44,
            27
        ],
        "stat": {
            "playerTotalScore": 397,
            "oppTotalScore": 303,
            "truth": 31,
            "truth_noBS": 13,
            "truth_BS": 18,
            "lie": 19,
            "lie_noBS": 8,
            "lie_BS": 11,
            "noBS": 38,
            "noBS_truth": 15,
            "noBS_lie": 23,
            "BS": 12,
            "BS_truth": 4,
            "BS_lie": 8
        },
        "sona": {
            "experiment_id": 1505,
            "credit_token": "b20092f9d3b34a378ee654bcc50710ea"
        },
        "debug": false
    },
    "trials": [
        {
            "exptPart": "practice",
            "trialNumber": 1,
            "roleCurrent": "bullshitter",
            "diceSides": 10,
            "trueRoll": 8,
            "reportedRoll": 8,
            "compLie": -1,
            "compUnifLie": false,
            "compDetect": 0.7727272727272727,
            "callBS": true,
            "playerTrialScore": 8,
            "oppTrialScore": -3,
            "playerTotalScore": 8,
            "oppTotalScore": -3,
            "waitTime": 2124.9491095922244,
            "responseTime": 1598702467454,
            "catchQuestion": "",
            "catchKey": -1,
            "catchResponse": -1,
            "catchResponseTime": -1,
            "trialTime": 19619
        },
        {
            "exptPart": "practice",
            "trialNumber": 2,
            "roleCurrent": "bullshitDetector",
            "diceSides": 10,
            "trueRoll": 7,
            "reportedRoll": 7,
            "compLie": 3,
            "compUnifLie": false,
            "compDetect": -1,
            "callBS": true,
            "playerTrialScore": -2,
            "oppTrialScore": 7,
            "playerTotalScore": 6,
            "oppTotalScore": 4,
            "waitTime": 5921.823873685014,
            "responseTime": 4372,
            "catchQuestion": "",
            "catchKey": -1,
            "catchResponse": -1,
            "catchResponseTime": -1,
            "trialTime": 15656
        },
        {
            "exptPart": "practice",
            "trialNumber": 3,
            "roleCurrent": "bullshitter",
            "diceSides": 10,
            "trueRoll": 6,
            "reportedRoll": 8,
            "compLie": -1,
            "compUnifLie": false,
            "compDetect": 0.7727272727272727,
            "callBS": false,
            "playerTrialScore": 8,
            "oppTrialScore": 2,
            "playerTotalScore": 14,
            "oppTotalScore": 6,
            "waitTime": 2207.177183748732,
            "responseTime": 16038,
            "catchQuestion": "What number did you roll?",
            "catchKey": 6,
            "catchResponse": 6,
            "catchResponseTime": 6221,
            "trialTime": 20564
        },
        {
            "exptPart": "practice",
            "trialNumber": 4,
            "roleCurrent": "bullshitDetector",
            "diceSides": 10,
            "trueRoll": 3,
            "reportedRoll": 3,
            "compLie": 0,
            "compUnifLie": false,
            "compDetect": -1,
            "callBS": false,
            "playerTrialScore": 7,
            "oppTrialScore": 3,
            "playerTotalScore": 21,
            "oppTotalScore": 9,
            "waitTime": 5874.517394635979,
            "responseTime": 1912,
            "catchQuestion": "What number did your opponent report rolling?",
            "catchKey": 3,
            "catchResponse": 3,
            "catchResponseTime": 5869,
            "trialTime": 17012
        },
        {
            "exptPart": "trial",
            "trialNumber": 1,
            "roleCurrent": "bullshitDetector",
            "diceSides": 10,
            "trueRoll": 10,
            "reportedRoll": 10,
            "compLie": 9,
            "compUnifLie": false,
            "compDetect": -1,
            "callBS": true,
            "playerTrialScore": -5,
            "oppTrialScore": 10,
            "playerTotalScore": -5,
            "oppTotalScore": 10,
            "waitTime": 5773.66995772022,
            "responseTime": 2250,
            "catchQuestion": "What number did your opponent report rolling?",
            "catchKey": -1,
            "catchResponse": -1,
            "catchResponseTime": -1,
            "trialTime": 10811
        },
        {
            "exptPart": "trial",
            "trialNumber": 2,
            "roleCurrent": "bullshitter",
            "diceSides": 10,
            "trueRoll": 9,
            "reportedRoll": 9,
            "compLie": -1,
            "compUnifLie": false,
            "compDetect": 0.8636363636363636,
            "callBS": true,
            "playerTrialScore": 9,
            "oppTrialScore": -4,
            "playerTotalScore": 4,
            "oppTotalScore": 6,
            "waitTime": 2116.3478445689934,
            "responseTime": 10887,
            "catchQuestion": "What number did your opponent report rolling?",
            "catchKey": -1,
            "catchResponse": -1,
            "catchResponseTime": -1,
            "trialTime": 11678
        },
        {
            "exptPart": "trial",
            "trialNumber": 3,
            "roleCurrent": "bullshitDetector",
            "diceSides": 10,
            "trueRoll": 4,
            "reportedRoll": 5,
            "compLie": -1,
            "compUnifLie": true,
            "compDetect": -1,
            "callBS": false,
            "playerTrialScore": 5,
            "oppTrialScore": 5,
            "playerTotalScore": 9,
            "oppTotalScore": 11,
            "waitTime": 6931.915557705983,
            "responseTime": 2640,
            "catchQuestion": "What number did your opponent report rolling?",
            "catchKey": -1,
            "catchResponse": -1,
            "catchResponseTime": -1,
            "trialTime": 11433
        },
        {
            "exptPart": "trial",
            "trialNumber": 4,
            "roleCurrent": "bullshitter",
            "diceSides": 10,
            "trueRoll": 4,
            "reportedRoll": 7,
            "compLie": -1,
            "compUnifLie": false,
            "compDetect": 0.6818181818181818,
            "callBS": true,
            "playerTrialScore": -5,
            "oppTrialScore": 5,
            "playerTotalScore": 4,
            "oppTotalScore": 16,
            "waitTime": 2917.4312698663716,
            "responseTime": 11266,
            "catchQuestion": "What number did your opponent report rolling?",
            "catchKey": -1,
            "catchResponse": -1,
            "catchResponseTime": -1,
            "trialTime": 14795
        },
        {
            "exptPart": "trial",
            "trialNumber": 5,
            "roleCurrent": "bullshitDetector",
            "diceSides": 10,
            "trueRoll": 2,
            "reportedRoll": 0,
            "compLie": -1,
            "compUnifLie": true,
            "compDetect": -1,
            "callBS": false,
            "playerTrialScore": 10,
            "oppTrialScore": 0,
            "playerTotalScore": 14,
            "oppTotalScore": 16,
            "waitTime": 5162.731453043551,
            "responseTime": 5919,
            "catchQuestion": "What number did your opponent report rolling?",
            "catchKey": 0,
            "catchResponse": 1,
            "catchResponseTime": 22752,
            "trialTime": 41461
        },
        {
            "exptPart": "trial",
            "trialNumber": 6,
            "roleCurrent": "bullshitter",
            "diceSides": 10,
            "trueRoll": 5,
            "reportedRoll": 8,
            "compLie": -1,
            "compUnifLie": false,
            "compDetect": 0.7727272727272727,
            "callBS": true,
            "playerTrialScore": -5,
            "oppTrialScore": 5,
            "playerTotalScore": 9,
            "oppTotalScore": 21,
            "waitTime": 2477.510954530533,
            "responseTime": 42091,
            "catchQuestion": "What number did your opponent report rolling?",
            "catchKey": -1,
            "catchResponse": -1,
            "catchResponseTime": -1,
            "trialTime": 11277
        },
        {
            "exptPart": "trial",
            "trialNumber": 7,
            "roleCurrent": "bullshitDetector",
            "diceSides": 10,
            "trueRoll": 4,
            "reportedRoll": 4,
            "compLie": 1,
            "compUnifLie": false,
            "compDetect": -1,
            "callBS": false,
            "playerTrialScore": 6,
            "oppTrialScore": 4,
            "playerTotalScore": 15,
            "oppTotalScore": 25,
            "waitTime": 5553.236741042933,
            "responseTime": 1891,
            "catchQuestion": "What number did your opponent report rolling?",
            "catchKey": 4,
            "catchResponse": 4,
            "catchResponseTime": 13332,
            "trialTime": 22952
        },
        {
            "exptPart": "trial",
            "trialNumber": 8,
            "roleCurrent": "bullshitter",
            "diceSides": 10,
            "trueRoll": 3,
            "reportedRoll": 6,
            "compLie": -1,
            "compUnifLie": false,
            "compDetect": 0.5909090909090909,
            "callBS": true,
            "playerTrialScore": -5,
            "oppTrialScore": 5,
            "playerTotalScore": 10,
            "oppTotalScore": 30,
            "waitTime": 2321.4186368446835,
            "responseTime": 22116,
            "catchQuestion": "What number did your opponent report rolling?",
            "catchKey": -1,
            "catchResponse": -1,
            "catchResponseTime": -1,
            "trialTime": 9165
        },
        {
            "exptPart": "trial",
            "trialNumber": 9,
            "roleCurrent": "bullshitDetector",
            "diceSides": 10,
            "trueRoll": 9,
            "reportedRoll": 10,
            "compLie": 10,
            "compUnifLie": false,
            "compDetect": -1,
            "callBS": true,
            "playerTrialScore": 5,
            "oppTrialScore": -5,
            "playerTotalScore": 15,
            "oppTotalScore": 25,
            "waitTime": 7434.781675666282,
            "responseTime": 1718,
            "catchQuestion": "What number did your opponent report rolling?",
            "catchKey": -1,
            "catchResponse": -1,
            "catchResponseTime": -1,
            "trialTime": 11084
        },
        {
            "exptPart": "trial",
            "trialNumber": 10,
            "roleCurrent": "bullshitter",
            "diceSides": 10,
            "trueRoll": 0,
            "reportedRoll": 5,
            "compLie": -1,
            "compUnifLie": false,
            "compDetect": 0.5,
            "callBS": true,
            "playerTrialScore": -5,
            "oppTrialScore": 5,
            "playerTotalScore": 10,
            "oppTotalScore": 30,
            "waitTime": 2204.5634925982413,
            "responseTime": 9506,
            "catchQuestion": "What number did your opponent report rolling?",
            "catchKey": -1,
            "catchResponse": -1,
            "catchResponseTime": -1,
            "trialTime": 10954
        },
        {
            "exptPart": "trial",
            "trialNumber": 11,
            "roleCurrent": "bullshitDetector",
            "diceSides": 10,
            "trueRoll": 9,
            "reportedRoll": 9,
            "compLie": 5,
            "compUnifLie": false,
            "compDetect": -1,
            "callBS": true,
            "playerTrialScore": -4,
            "oppTrialScore": 9,
            "playerTotalScore": 6,
            "oppTotalScore": 39,
            "waitTime": 6475.360792735093,
            "responseTime": 3032,
            "catchQuestion": "What number did your opponent report rolling?",
            "catchKey": -1,
            "catchResponse": -1,
            "catchResponseTime": -1,
            "trialTime": 11439
        },
        {
            "exptPart": "trial",
            "trialNumber": 12,
            "roleCurrent": "bullshitter",
            "diceSides": 10,
            "trueRoll": 5,
            "reportedRoll": 5,
            "compLie": -1,
            "compUnifLie": false,
            "compDetect": 0.5,
            "callBS": false,
            "playerTrialScore": 5,
            "oppTrialScore": 5,
            "playerTotalScore": 11,
            "oppTotalScore": 44,
            "waitTime": 2875.1443794979778,
            "responseTime": 10344,
            "catchQuestion": "What number did your opponent report rolling?",
            "catchKey": -1,
            "catchResponse": -1,
            "catchResponseTime": -1,
            "trialTime": 11405
        },
        {
            "exptPart": "trial",
            "trialNumber": 13,
            "roleCurrent": "bullshitDetector",
            "diceSides": 10,
            "trueRoll": 8,
            "reportedRoll": 8,
            "compLie": 7,
            "compUnifLie": false,
            "compDetect": -1,
            "callBS": true,
            "playerTrialScore": -3,
            "oppTrialScore": 8,
            "playerTotalScore": 8,
            "oppTotalScore": 52,
            "waitTime": 5364.304583554643,
            "responseTime": 2688,
            "catchQuestion": "What number did your opponent report rolling?",
            "catchKey": -1,
            "catchResponse": -1,
            "catchResponseTime": -1,
            "trialTime": 9882
        },
        {
            "exptPart": "trial",
            "trialNumber": 14,
            "roleCurrent": "bullshitter",
            "diceSides": 10,
            "trueRoll": 8,
            "reportedRoll": 8,
            "compLie": -1,
            "compUnifLie": false,
            "compDetect": 0.7727272727272727,
            "callBS": true,
            "playerTrialScore": 8,
            "oppTrialScore": -3,
            "playerTotalScore": 16,
            "oppTotalScore": 49,
            "waitTime": 3044.722939442896,
            "responseTime": 9176,
            "catchQuestion": "What number did your opponent report rolling?",
            "catchKey": -1,
            "catchResponse": -1,
            "catchResponseTime": -1,
            "trialTime": 38072
        },
        {
            "exptPart": "trial",
            "trialNumber": 15,
            "roleCurrent": "bullshitDetector",
            "diceSides": 10,
            "trueRoll": 5,
            "reportedRoll": 5,
            "compLie": 4,
            "compUnifLie": false,
            "compDetect": -1,
            "callBS": false,
            "playerTrialScore": 5,
            "oppTrialScore": 5,
            "playerTotalScore": 21,
            "oppTotalScore": 54,
            "waitTime": 5229.205784245985,
            "responseTime": 2265,
            "catchQuestion": "What number did your opponent report rolling?",
            "catchKey": -1,
            "catchResponse": -1,
            "catchResponseTime": -1,
            "trialTime": 9379
        },
        {
            "exptPart": "trial",
            "trialNumber": 16,
            "roleCurrent": "bullshitter",
            "diceSides": 10,
            "trueRoll": 6,
            "reportedRoll": 6,
            "compLie": -1,
            "compUnifLie": false,
            "compDetect": 0.5909090909090909,
            "callBS": false,
            "playerTrialScore": 6,
            "oppTrialScore": 4,
            "playerTotalScore": 27,
            "oppTotalScore": 58,
            "waitTime": 2168.2458484001945,
            "responseTime": 8666,
            "catchQuestion": "What number did you roll?",
            "catchKey": 6,
            "catchResponse": 6,
            "catchResponseTime": 4220,
            "trialTime": 13391
        },
        {
            "exptPart": "trial",
            "trialNumber": 17,
            "roleCurrent": "bullshitDetector",
            "diceSides": 10,
            "trueRoll": 3,
            "reportedRoll": 8,
            "compLie": -1,
            "compUnifLie": true,
            "compDetect": -1,
            "callBS": true,
            "playerTrialScore": 5,
            "oppTrialScore": -5,
            "playerTotalScore": 32,
            "oppTotalScore": 53,
            "waitTime": 6572.137014430941,
            "responseTime": 5914,
            "catchQuestion": "What number did you roll?",
            "catchKey": -1,
            "catchResponse": -1,
            "catchResponseTime": -1,
            "trialTime": 17685
        },
        {
            "exptPart": "trial",
            "trialNumber": 18,
            "roleCurrent": "bullshitter",
            "diceSides": 10,
            "trueRoll": 9,
            "reportedRoll": 9,
            "compLie": -1,
            "compUnifLie": false,
            "compDetect": 0.8636363636363636,
            "callBS": true,
            "playerTrialScore": 9,
            "oppTrialScore": -4,
            "playerTotalScore": 41,
            "oppTotalScore": 49,
            "waitTime": 3053.653487929221,
            "responseTime": 15685,
            "catchQuestion": "What number did you roll?",
            "catchKey": -1,
            "catchResponse": -1,
            "catchResponseTime": -1,
            "trialTime": 9300
        },
        {
            "exptPart": "trial",
            "trialNumber": 19,
            "roleCurrent": "bullshitDetector",
            "diceSides": 10,
            "trueRoll": 3,
            "reportedRoll": 7,
            "compLie": -1,
            "compUnifLie": true,
            "compDetect": -1,
            "callBS": false,
            "playerTrialScore": 3,
            "oppTrialScore": 7,
            "playerTotalScore": 44,
            "oppTotalScore": 56,
            "waitTime": 5266.069537222359,
            "responseTime": 2477,
            "catchQuestion": "What number did you roll?",
            "catchKey": -1,
            "catchResponse": -1,
            "catchResponseTime": -1,
            "trialTime": 10021
        },
        {
            "exptPart": "trial",
            "trialNumber": 20,
            "roleCurrent": "bullshitter",
            "diceSides": 10,
            "trueRoll": 4,
            "reportedRoll": 6,
            "compLie": -1,
            "compUnifLie": false,
            "compDetect": 0.5909090909090909,
            "callBS": true,
            "playerTrialScore": -5,
            "oppTrialScore": 5,
            "playerTotalScore": 39,
            "oppTotalScore": 61,
            "waitTime": 2712.589574569813,
            "responseTime": 10287,
            "catchQuestion": "What number did you roll?",
            "catchKey": -1,
            "catchResponse": -1,
            "catchResponseTime": -1,
            "trialTime": 16963
        },
        {
            "exptPart": "trial",
            "trialNumber": 21,
            "roleCurrent": "bullshitDetector",
            "diceSides": 10,
            "trueRoll": 4,
            "reportedRoll": 4,
            "compLie": -1,
            "compUnifLie": true,
            "compDetect": -1,
            "callBS": false,
            "playerTrialScore": 6,
            "oppTrialScore": 4,
            "playerTotalScore": 45,
            "oppTotalScore": 65,
            "waitTime": 5583.817595336709,
            "responseTime": 2350,
            "catchQuestion": "What number did you roll?",
            "catchKey": -1,
            "catchResponse": -1,
            "catchResponseTime": -1,
            "trialTime": 10139
        },
        {
            "exptPart": "trial",
            "trialNumber": 22,
            "roleCurrent": "bullshitter",
            "diceSides": 10,
            "trueRoll": 1,
            "reportedRoll": 1,
            "compLie": -1,
            "compUnifLie": false,
            "compDetect": 0.13636363636363635,
            "callBS": false,
            "playerTrialScore": 1,
            "oppTrialScore": 9,
            "playerTotalScore": 46,
            "oppTotalScore": 74,
            "waitTime": 2265.105774907367,
            "responseTime": 10258,
            "catchQuestion": "What number did you roll?",
            "catchKey": -1,
            "catchResponse": -1,
            "catchResponseTime": -1,
            "trialTime": 15748
        },
        {
            "exptPart": "trial",
            "trialNumber": 23,
            "roleCurrent": "bullshitDetector",
            "diceSides": 10,
            "trueRoll": 1,
            "reportedRoll": 5,
            "compLie": 5,
            "compUnifLie": false,
            "compDetect": -1,
            "callBS": false,
            "playerTrialScore": 5,
            "oppTrialScore": 5,
            "playerTotalScore": 51,
            "oppTotalScore": 79,
            "waitTime": 7433.0364319548025,
            "responseTime": 1302,
            "catchQuestion": "What number did you roll?",
            "catchKey": -1,
            "catchResponse": -1,
            "catchResponseTime": -1,
            "trialTime": 12965
        },
        {
            "exptPart": "trial",
            "trialNumber": 24,
            "roleCurrent": "bullshitter",
            "diceSides": 10,
            "trueRoll": 9,
            "reportedRoll": 9,
            "compLie": -1,
            "compUnifLie": false,
            "compDetect": 0.8636363636363636,
            "callBS": false,
            "playerTrialScore": 9,
            "oppTrialScore": 1,
            "playerTotalScore": 60,
            "oppTotalScore": 80,
            "waitTime": 2717.395948382451,
            "responseTime": 9616,
            "catchQuestion": "What number did you roll?",
            "catchKey": 9,
            "catchResponse": 9,
            "catchResponseTime": 2879,
            "trialTime": 11938
        },
        {
            "exptPart": "trial",
            "trialNumber": 25,
            "roleCurrent": "bullshitDetector",
            "diceSides": 10,
            "trueRoll": 2,
            "reportedRoll": 9,
            "compLie": 9,
            "compUnifLie": false,
            "compDetect": -1,
            "callBS": false,
            "playerTrialScore": 1,
            "oppTrialScore": 9,
            "playerTotalScore": 61,
            "oppTotalScore": 89,
            "waitTime": 6362.949097045256,
            "responseTime": 2829,
            "catchQuestion": "What number did you roll?",
            "catchKey": -1,
            "catchResponse": -1,
            "catchResponseTime": -1,
            "trialTime": 11111
        },
        {
            "exptPart": "trial",
            "trialNumber": 26,
            "roleCurrent": "bullshitter",
            "diceSides": 10,
            "trueRoll": 4,
            "reportedRoll": 4,
            "compLie": -1,
            "compUnifLie": false,
            "compDetect": 0.4090909090909091,
            "callBS": false,
            "playerTrialScore": 4,
            "oppTrialScore": 6,
            "playerTotalScore": 65,
            "oppTotalScore": 95,
            "waitTime": 2255.060502876849,
            "responseTime": 10250,
            "catchQuestion": "What number did you roll?",
            "catchKey": -1,
            "catchResponse": -1,
            "catchResponseTime": -1,
            "trialTime": 9683
        },
        {
            "exptPart": "trial",
            "trialNumber": 27,
            "roleCurrent": "bullshitDetector",
            "diceSides": 10,
            "trueRoll": 10,
            "reportedRoll": 7,
            "compLie": -1,
            "compUnifLie": true,
            "compDetect": -1,
            "callBS": true,
            "playerTrialScore": 5,
            "oppTrialScore": -5,
            "playerTotalScore": 70,
            "oppTotalScore": 90,
            "waitTime": 7141.004279924634,
            "responseTime": 1649,
            "catchQuestion": "What number did your opponent report rolling?",
            "catchKey": 7,
            "catchResponse": 7,
            "catchResponseTime": 3437,
            "trialTime": 13931
        },
        {
            "exptPart": "trial",
            "trialNumber": 28,
            "roleCurrent": "bullshitter",
            "diceSides": 10,
            "trueRoll": 1,
            "reportedRoll": 4,
            "compLie": -1,
            "compUnifLie": false,
            "compDetect": 0.4090909090909091,
            "callBS": false,
            "playerTrialScore": 4,
            "oppTrialScore": 6,
            "playerTotalScore": 74,
            "oppTotalScore": 96,
            "waitTime": 3069.0366769080824,
            "responseTime": 12573,
            "catchQuestion": "What number did you roll?",
            "catchKey": 1,
            "catchResponse": 1,
            "catchResponseTime": 4473,
            "trialTime": 24956
        },
        {
            "exptPart": "trial",
            "trialNumber": 29,
            "roleCurrent": "bullshitDetector",
            "diceSides": 10,
            "trueRoll": 7,
            "reportedRoll": 7,
            "compLie": 0,
            "compUnifLie": false,
            "compDetect": -1,
            "callBS": false,
            "playerTrialScore": 3,
            "oppTrialScore": 7,
            "playerTotalScore": 77,
            "oppTotalScore": 103,
            "waitTime": 7060.429802942628,
            "responseTime": 2791,
            "catchQuestion": "What number did you roll?",
            "catchKey": -1,
            "catchResponse": -1,
            "catchResponseTime": -1,
            "trialTime": 11586
        },
        {
            "exptPart": "trial",
            "trialNumber": 30,
            "roleCurrent": "bullshitter",
            "diceSides": 10,
            "trueRoll": 10,
            "reportedRoll": 10,
            "compLie": -1,
            "compUnifLie": false,
            "compDetect": 0.9545454545454546,
            "callBS": true,
            "playerTrialScore": 10,
            "oppTrialScore": -5,
            "playerTotalScore": 87,
            "oppTotalScore": 98,
            "waitTime": 2221.810912072291,
            "responseTime": 11501,
            "catchQuestion": "What number did you roll?",
            "catchKey": -1,
            "catchResponse": -1,
            "catchResponseTime": -1,
            "trialTime": 11360
        },
        {
            "exptPart": "trial",
            "trialNumber": 31,
            "roleCurrent": "bullshitDetector",
            "diceSides": 10,
            "trueRoll": 6,
            "reportedRoll": 10,
            "compLie": 10,
            "compUnifLie": false,
            "compDetect": -1,
            "callBS": false,
            "playerTrialScore": 0,
            "oppTrialScore": 10,
            "playerTotalScore": 87,
            "oppTotalScore": 108,
            "waitTime": 6843.712171450292,
            "responseTime": 2076,
            "catchQuestion": "What number did you roll?",
            "catchKey": -1,
            "catchResponse": -1,
            "catchResponseTime": -1,
            "trialTime": 10753
        },
        {
            "exptPart": "trial",
            "trialNumber": 32,
            "roleCurrent": "bullshitter",
            "diceSides": 10,
            "trueRoll": 9,
            "reportedRoll": 9,
            "compLie": -1,
            "compUnifLie": false,
            "compDetect": 0.8636363636363636,
            "callBS": true,
            "playerTrialScore": 9,
            "oppTrialScore": -4,
            "playerTotalScore": 96,
            "oppTotalScore": 104,
            "waitTime": 2183.7312850092685,
            "responseTime": 8324,
            "catchQuestion": "What number did you roll?",
            "catchKey": -1,
            "catchResponse": -1,
            "catchResponseTime": -1,
            "trialTime": 8926
        },
        {
            "exptPart": "trial",
            "trialNumber": 33,
            "roleCurrent": "bullshitDetector",
            "diceSides": 10,
            "trueRoll": 4,
            "reportedRoll": 1,
            "compLie": -1,
            "compUnifLie": true,
            "compDetect": -1,
            "callBS": false,
            "playerTrialScore": 9,
            "oppTrialScore": 1,
            "playerTotalScore": 105,
            "oppTotalScore": 105,
            "waitTime": 6247.397614531892,
            "responseTime": 2017,
            "catchQuestion": "What number did you roll?",
            "catchKey": -1,
            "catchResponse": -1,
            "catchResponseTime": -1,
            "trialTime": 10023
        },
        {
            "exptPart": "trial",
            "trialNumber": 34,
            "roleCurrent": "bullshitter",
            "diceSides": 10,
            "trueRoll": 2,
            "reportedRoll": 3,
            "compLie": -1,
            "compUnifLie": false,
            "compDetect": 0.3181818181818182,
            "callBS": false,
            "playerTrialScore": 3,
            "oppTrialScore": 7,
            "playerTotalScore": 108,
            "oppTotalScore": 112,
            "waitTime": 2557.157725599146,
            "responseTime": 9557,
            "catchQuestion": "What number did you roll?",
            "catchKey": -1,
            "catchResponse": -1,
            "catchResponseTime": -1,
            "trialTime": 10126
        },
        {
            "exptPart": "trial",
            "trialNumber": 35,
            "roleCurrent": "bullshitDetector",
            "diceSides": 10,
            "trueRoll": 1,
            "reportedRoll": 6,
            "compLie": 6,
            "compUnifLie": false,
            "compDetect": -1,
            "callBS": false,
            "playerTrialScore": 4,
            "oppTrialScore": 6,
            "playerTotalScore": 112,
            "oppTotalScore": 118,
            "waitTime": 5917.696179028965,
            "responseTime": 2411,
            "catchQuestion": "What number did you roll?",
            "catchKey": -1,
            "catchResponse": -1,
            "catchResponseTime": -1,
            "trialTime": 10535
        },
        {
            "exptPart": "trial",
            "trialNumber": 36,
            "roleCurrent": "bullshitter",
            "diceSides": 10,
            "trueRoll": 2,
            "reportedRoll": 4,
            "compLie": -1,
            "compUnifLie": false,
            "compDetect": 0.4090909090909091,
            "callBS": true,
            "playerTrialScore": -5,
            "oppTrialScore": 5,
            "playerTotalScore": 107,
            "oppTotalScore": 123,
            "waitTime": 3072.957221148479,
            "responseTime": 9864,
            "catchQuestion": "What number did you roll?",
            "catchKey": 2,
            "catchResponse": 2,
            "catchResponseTime": 2825,
            "trialTime": 13115
        },
        {
            "exptPart": "trial",
            "trialNumber": 37,
            "roleCurrent": "bullshitDetector",
            "diceSides": 10,
            "trueRoll": 3,
            "reportedRoll": 3,
            "compLie": 1,
            "compUnifLie": false,
            "compDetect": -1,
            "callBS": false,
            "playerTrialScore": 7,
            "oppTrialScore": 3,
            "playerTotalScore": 114,
            "oppTotalScore": 126,
            "waitTime": 7190.199907776727,
            "responseTime": 1314,
            "catchQuestion": "What number did you roll?",
            "catchKey": -1,
            "catchResponse": -1,
            "catchResponseTime": -1,
            "trialTime": 10363
        },
        {
            "exptPart": "trial",
            "trialNumber": 38,
            "roleCurrent": "bullshitter",
            "diceSides": 10,
            "trueRoll": 3,
            "reportedRoll": 5,
            "compLie": -1,
            "compUnifLie": false,
            "compDetect": 0.5,
            "callBS": true,
            "playerTrialScore": -5,
            "oppTrialScore": 5,
            "playerTotalScore": 109,
            "oppTotalScore": 131,
            "waitTime": 2708.083233837402,
            "responseTime": 9643,
            "catchQuestion": "What number did you roll?",
            "catchKey": -1,
            "catchResponse": -1,
            "catchResponseTime": -1,
            "trialTime": 11853
        },
        {
            "exptPart": "trial",
            "trialNumber": 39,
            "roleCurrent": "bullshitDetector",
            "diceSides": 10,
            "trueRoll": 1,
            "reportedRoll": 3,
            "compLie": 3,
            "compUnifLie": false,
            "compDetect": -1,
            "callBS": false,
            "playerTrialScore": 7,
            "oppTrialScore": 3,
            "playerTotalScore": 116,
            "oppTotalScore": 134,
            "waitTime": 7007.708938923135,
            "responseTime": 2075,
            "catchQuestion": "What number did you roll?",
            "catchKey": -1,
            "catchResponse": -1,
            "catchResponseTime": -1,
            "trialTime": 11617
        },
        {
            "exptPart": "trial",
            "trialNumber": 40,
            "roleCurrent": "bullshitter",
            "diceSides": 10,
            "trueRoll": 0,
            "reportedRoll": 3,
            "compLie": -1,
            "compUnifLie": false,
            "compDetect": 0.3181818181818182,
            "callBS": true,
            "playerTrialScore": -5,
            "oppTrialScore": 5,
            "playerTotalScore": 111,
            "oppTotalScore": 139,
            "waitTime": 2373.891928666263,
            "responseTime": 12352,
            "catchQuestion": "What number did you roll?",
            "catchKey": -1,
            "catchResponse": -1,
            "catchResponseTime": -1,
            "trialTime": 13096
        },
        {
            "exptPart": "trial",
            "trialNumber": 41,
            "roleCurrent": "bullshitDetector",
            "diceSides": 10,
            "trueRoll": 7,
            "reportedRoll": 7,
            "compLie": 1,
            "compUnifLie": false,
            "compDetect": -1,
            "callBS": false,
            "playerTrialScore": 3,
            "oppTrialScore": 7,
            "playerTotalScore": 114,
            "oppTotalScore": 146,
            "waitTime": 6022.31607549623,
            "responseTime": 1630,
            "catchQuestion": "What number did you roll?",
            "catchKey": -1,
            "catchResponse": -1,
            "catchResponseTime": -1,
            "trialTime": 16729
        },
        {
            "exptPart": "trial",
            "trialNumber": 42,
            "roleCurrent": "bullshitter",
            "diceSides": 10,
            "trueRoll": 9,
            "reportedRoll": 9,
            "compLie": -1,
            "compUnifLie": false,
            "compDetect": 0.8636363636363636,
            "callBS": true,
            "playerTrialScore": 9,
            "oppTrialScore": -4,
            "playerTotalScore": 123,
            "oppTotalScore": 142,
            "waitTime": 2113.210527857514,
            "responseTime": 18281,
            "catchQuestion": "What number did you roll?",
            "catchKey": -1,
            "catchResponse": -1,
            "catchResponseTime": -1,
            "trialTime": 11984
        },
        {
            "exptPart": "trial",
            "trialNumber": 43,
            "roleCurrent": "bullshitDetector",
            "diceSides": 10,
            "trueRoll": 10,
            "reportedRoll": 10,
            "compLie": 7,
            "compUnifLie": false,
            "compDetect": -1,
            "callBS": false,
            "playerTrialScore": 0,
            "oppTrialScore": 10,
            "playerTotalScore": 123,
            "oppTotalScore": 152,
            "waitTime": 7275.265009370525,
            "responseTime": 2815,
            "catchQuestion": "What number did you roll?",
            "catchKey": -1,
            "catchResponse": -1,
            "catchResponseTime": -1,
            "trialTime": 12219
        },
        {
            "exptPart": "trial",
            "trialNumber": 44,
            "roleCurrent": "bullshitter",
            "diceSides": 10,
            "trueRoll": 10,
            "reportedRoll": 10,
            "compLie": -1,
            "compUnifLie": false,
            "compDetect": 0.9545454545454546,
            "callBS": true,
            "playerTrialScore": 10,
            "oppTrialScore": -5,
            "playerTotalScore": 133,
            "oppTotalScore": 147,
            "waitTime": 2335.863638569225,
            "responseTime": 10771,
            "catchQuestion": "What number did you roll?",
            "catchKey": -1,
            "catchResponse": -1,
            "catchResponseTime": -1,
            "trialTime": 11500
        },
        {
            "exptPart": "trial",
            "trialNumber": 45,
            "roleCurrent": "bullshitDetector",
            "diceSides": 10,
            "trueRoll": 4,
            "reportedRoll": 8,
            "compLie": 8,
            "compUnifLie": false,
            "compDetect": -1,
            "callBS": true,
            "playerTrialScore": 5,
            "oppTrialScore": -5,
            "playerTotalScore": 138,
            "oppTotalScore": 142,
            "waitTime": 6712.991070584145,
            "responseTime": 2967,
            "catchQuestion": "What number did your opponent report rolling?",
            "catchKey": 8,
            "catchResponse": 8,
            "catchResponseTime": 4809,
            "trialTime": 17561
        },
        {
            "exptPart": "trial",
            "trialNumber": 46,
            "roleCurrent": "bullshitter",
            "diceSides": 10,
            "trueRoll": 7,
            "reportedRoll": 7,
            "compLie": -1,
            "compUnifLie": false,
            "compDetect": 0.6818181818181818,
            "callBS": false,
            "playerTrialScore": 7,
            "oppTrialScore": 3,
            "playerTotalScore": 145,
            "oppTotalScore": 145,
            "waitTime": 2300.156464474765,
            "responseTime": 16699,
            "catchQuestion": "What number did your opponent report rolling?",
            "catchKey": -1,
            "catchResponse": -1,
            "catchResponseTime": -1,
            "trialTime": 9962
        },
        {
            "exptPart": "trial",
            "trialNumber": 47,
            "roleCurrent": "bullshitDetector",
            "diceSides": 10,
            "trueRoll": 1,
            "reportedRoll": 2,
            "compLie": 2,
            "compUnifLie": false,
            "compDetect": -1,
            "callBS": false,
            "playerTrialScore": 8,
            "oppTrialScore": 2,
            "playerTotalScore": 153,
            "oppTotalScore": 147,
            "waitTime": 6445.85553225633,
            "responseTime": 1862,
            "catchQuestion": "What number did your opponent report rolling?",
            "catchKey": -1,
            "catchResponse": -1,
            "catchResponseTime": -1,
            "trialTime": 10137
        },
        {
            "exptPart": "trial",
            "trialNumber": 48,
            "roleCurrent": "bullshitter",
            "diceSides": 10,
            "trueRoll": 8,
            "reportedRoll": 8,
            "compLie": -1,
            "compUnifLie": false,
            "compDetect": 0.7727272727272727,
            "callBS": false,
            "playerTrialScore": 8,
            "oppTrialScore": 2,
            "playerTotalScore": 161,
            "oppTotalScore": 149,
            "waitTime": 2366.059443528483,
            "responseTime": 9675,
            "catchQuestion": "What number did your opponent report rolling?",
            "catchKey": -1,
            "catchResponse": -1,
            "catchResponseTime": -1,
            "trialTime": 10240
        },
        {
            "exptPart": "trial",
            "trialNumber": 49,
            "roleCurrent": "bullshitDetector",
            "diceSides": 10,
            "trueRoll": 1,
            "reportedRoll": 5,
            "compLie": 5,
            "compUnifLie": false,
            "compDetect": -1,
            "callBS": false,
            "playerTrialScore": 5,
            "oppTrialScore": 5,
            "playerTotalScore": 166,
            "oppTotalScore": 154,
            "waitTime": 6153.8228401079705,
            "responseTime": 1352,
            "catchQuestion": "What number did your opponent report rolling?",
            "catchKey": 5,
            "catchResponse": 5,
            "catchResponseTime": 3391,
            "trialTime": 12677
        },
        {
            "exptPart": "trial",
            "trialNumber": 50,
            "roleCurrent": "bullshitter",
            "diceSides": 10,
            "trueRoll": 6,
            "reportedRoll": 6,
            "compLie": -1,
            "compUnifLie": false,
            "compDetect": 0.5909090909090909,
            "callBS": false,
            "playerTrialScore": 6,
            "oppTrialScore": 4,
            "playerTotalScore": 172,
            "oppTotalScore": 158,
            "waitTime": 2435.545143187515,
            "responseTime": 11926,
            "catchQuestion": "What number did your opponent report rolling?",
            "catchKey": -1,
            "catchResponse": -1,
            "catchResponseTime": -1,
            "trialTime": 12614
        },
        {
            "exptPart": "trial",
            "trialNumber": 51,
            "roleCurrent": "bullshitDetector",
            "diceSides": 10,
            "trueRoll": 2,
            "reportedRoll": 5,
            "compLie": 5,
            "compUnifLie": false,
            "compDetect": -1,
            "callBS": false,
            "playerTrialScore": 5,
            "oppTrialScore": 5,
            "playerTotalScore": 177,
            "oppTotalScore": 163,
            "waitTime": 6325.091108630791,
            "responseTime": 1364,
            "catchQuestion": "What number did your opponent report rolling?",
            "catchKey": -1,
            "catchResponse": -1,
            "catchResponseTime": -1,
            "trialTime": 9949
        },
        {
            "exptPart": "trial",
            "trialNumber": 52,
            "roleCurrent": "bullshitter",
            "diceSides": 10,
            "trueRoll": 7,
            "reportedRoll": 7,
            "compLie": -1,
            "compUnifLie": false,
            "compDetect": 0.6818181818181818,
            "callBS": true,
            "playerTrialScore": 7,
            "oppTrialScore": -2,
            "playerTotalScore": 184,
            "oppTotalScore": 161,
            "waitTime": 2576.5467266725746,
            "responseTime": 8812,
            "catchQuestion": "What number did your opponent report rolling?",
            "catchKey": -1,
            "catchResponse": -1,
            "catchResponseTime": -1,
            "trialTime": 9707
        },
        {
            "exptPart": "trial",
            "trialNumber": 53,
            "roleCurrent": "bullshitDetector",
            "diceSides": 10,
            "trueRoll": 8,
            "reportedRoll": 10,
            "compLie": 10,
            "compUnifLie": false,
            "compDetect": -1,
            "callBS": false,
            "playerTrialScore": 0,
            "oppTrialScore": 10,
            "playerTotalScore": 184,
            "oppTotalScore": 171,
            "waitTime": 5920.821974221056,
            "responseTime": 2674,
            "catchQuestion": "What number did your opponent report rolling?",
            "catchKey": -1,
            "catchResponse": -1,
            "catchResponseTime": -1,
            "trialTime": 10156
        },
        {
            "exptPart": "trial",
            "trialNumber": 54,
            "roleCurrent": "bullshitter",
            "diceSides": 10,
            "trueRoll": 3,
            "reportedRoll": 5,
            "compLie": -1,
            "compUnifLie": false,
            "compDetect": 0.5,
            "callBS": false,
            "playerTrialScore": 5,
            "oppTrialScore": 5,
            "playerTotalScore": 189,
            "oppTotalScore": 176,
            "waitTime": 3246.820068511685,
            "responseTime": 9569,
            "catchQuestion": "What number did your opponent report rolling?",
            "catchKey": -1,
            "catchResponse": -1,
            "catchResponseTime": -1,
            "trialTime": 10605
        },
        {
            "exptPart": "trial",
            "trialNumber": 55,
            "roleCurrent": "bullshitDetector",
            "diceSides": 10,
            "trueRoll": 7,
            "reportedRoll": 9,
            "compLie": 9,
            "compUnifLie": false,
            "compDetect": -1,
            "callBS": true,
            "playerTrialScore": 5,
            "oppTrialScore": -5,
            "playerTotalScore": 194,
            "oppTotalScore": 171,
            "waitTime": 6308.287549992279,
            "responseTime": 1712,
            "catchQuestion": "What number did your opponent report rolling?",
            "catchKey": -1,
            "catchResponse": -1,
            "catchResponseTime": -1,
            "trialTime": 10275
        },
        {
            "exptPart": "trial",
            "trialNumber": 56,
            "roleCurrent": "bullshitter",
            "diceSides": 10,
            "trueRoll": 9,
            "reportedRoll": 9,
            "compLie": -1,
            "compUnifLie": false,
            "compDetect": 0.8636363636363636,
            "callBS": true,
            "playerTrialScore": 9,
            "oppTrialScore": -4,
            "playerTotalScore": 203,
            "oppTotalScore": 167,
            "waitTime": 2588.8460849377934,
            "responseTime": 9541,
            "catchQuestion": "What number did your opponent report rolling?",
            "catchKey": -1,
            "catchResponse": -1,
            "catchResponseTime": -1,
            "trialTime": 10394
        },
        {
            "exptPart": "trial",
            "trialNumber": 57,
            "roleCurrent": "bullshitDetector",
            "diceSides": 10,
            "trueRoll": 1,
            "reportedRoll": 2,
            "compLie": 2,
            "compUnifLie": false,
            "compDetect": -1,
            "callBS": false,
            "playerTrialScore": 8,
            "oppTrialScore": 2,
            "playerTotalScore": 211,
            "oppTotalScore": 169,
            "waitTime": 7131.13120468999,
            "responseTime": 1118,
            "catchQuestion": "What number did your opponent report rolling?",
            "catchKey": 2,
            "catchResponse": 2,
            "catchResponseTime": 3104,
            "trialTime": 12891
        },
        {
            "exptPart": "trial",
            "trialNumber": 58,
            "roleCurrent": "bullshitter",
            "diceSides": 10,
            "trueRoll": 10,
            "reportedRoll": 10,
            "compLie": -1,
            "compUnifLie": false,
            "compDetect": 0.9545454545454546,
            "callBS": true,
            "playerTrialScore": 10,
            "oppTrialScore": -5,
            "playerTotalScore": 221,
            "oppTotalScore": 164,
            "waitTime": 2962.2999452576405,
            "responseTime": 12470,
            "catchQuestion": "What number did your opponent report rolling?",
            "catchKey": -1,
            "catchResponse": -1,
            "catchResponseTime": -1,
            "trialTime": 11653
        },
        {
            "exptPart": "trial",
            "trialNumber": 59,
            "roleCurrent": "bullshitDetector",
            "diceSides": 10,
            "trueRoll": 4,
            "reportedRoll": 8,
            "compLie": 8,
            "compUnifLie": false,
            "compDetect": -1,
            "callBS": true,
            "playerTrialScore": 5,
            "oppTrialScore": -5,
            "playerTotalScore": 226,
            "oppTotalScore": 159,
            "waitTime": 5175.307349458915,
            "responseTime": 1529,
            "catchQuestion": "What number did your opponent report rolling?",
            "catchKey": -1,
            "catchResponse": -1,
            "catchResponseTime": -1,
            "trialTime": 8384
        },
        {
            "exptPart": "trial",
            "trialNumber": 60,
            "roleCurrent": "bullshitter",
            "diceSides": 10,
            "trueRoll": 9,
            "reportedRoll": 9,
            "compLie": -1,
            "compUnifLie": false,
            "compDetect": 0.8636363636363636,
            "callBS": true,
            "playerTrialScore": 9,
            "oppTrialScore": -4,
            "playerTotalScore": 235,
            "oppTotalScore": 155,
            "waitTime": 2548.484999039775,
            "responseTime": 8338,
            "catchQuestion": "What number did your opponent report rolling?",
            "catchKey": -1,
            "catchResponse": -1,
            "catchResponseTime": -1,
            "trialTime": 12225
        },
        {
            "exptPart": "trial",
            "trialNumber": 61,
            "roleCurrent": "bullshitDetector",
            "diceSides": 10,
            "trueRoll": 8,
            "reportedRoll": 10,
            "compLie": 10,
            "compUnifLie": false,
            "compDetect": -1,
            "callBS": false,
            "playerTrialScore": 0,
            "oppTrialScore": 10,
            "playerTotalScore": 235,
            "oppTotalScore": 165,
            "waitTime": 7070.470657298358,
            "responseTime": 1447,
            "catchQuestion": "What number did your opponent report rolling?",
            "catchKey": -1,
            "catchResponse": -1,
            "catchResponseTime": -1,
            "trialTime": 9923
        },
        {
            "exptPart": "trial",
            "trialNumber": 62,
            "roleCurrent": "bullshitter",
            "diceSides": 10,
            "trueRoll": 2,
            "reportedRoll": 3,
            "compLie": -1,
            "compUnifLie": false,
            "compDetect": 0.3181818181818182,
            "callBS": false,
            "playerTrialScore": 3,
            "oppTrialScore": 7,
            "playerTotalScore": 238,
            "oppTotalScore": 172,
            "waitTime": 2564.1500340155553,
            "responseTime": 8586,
            "catchQuestion": "What number did your opponent report rolling?",
            "catchKey": -1,
            "catchResponse": -1,
            "catchResponseTime": -1,
            "trialTime": 10378
        },
        {
            "exptPart": "trial",
            "trialNumber": 63,
            "roleCurrent": "bullshitDetector",
            "diceSides": 10,
            "trueRoll": 9,
            "reportedRoll": 9,
            "compLie": 1,
            "compUnifLie": false,
            "compDetect": -1,
            "callBS": true,
            "playerTrialScore": -4,
            "oppTrialScore": 9,
            "playerTotalScore": 234,
            "oppTotalScore": 181,
            "waitTime": 6167.070155126038,
            "responseTime": 2096,
            "catchQuestion": "What number did your opponent report rolling?",
            "catchKey": -1,
            "catchResponse": -1,
            "catchResponseTime": -1,
            "trialTime": 9959
        },
        {
            "exptPart": "trial",
            "trialNumber": 64,
            "roleCurrent": "bullshitter",
            "diceSides": 10,
            "trueRoll": 7,
            "reportedRoll": 7,
            "compLie": -1,
            "compUnifLie": false,
            "compDetect": 0.6818181818181818,
            "callBS": true,
            "playerTrialScore": 7,
            "oppTrialScore": -2,
            "playerTotalScore": 241,
            "oppTotalScore": 179,
            "waitTime": 2159.4029538465156,
            "responseTime": 9235,
            "catchQuestion": "What number did your opponent report rolling?",
            "catchKey": -1,
            "catchResponse": -1,
            "catchResponseTime": -1,
            "trialTime": 9711
        },
        {
            "exptPart": "trial",
            "trialNumber": 65,
            "roleCurrent": "bullshitDetector",
            "diceSides": 10,
            "trueRoll": 3,
            "reportedRoll": 4,
            "compLie": 4,
            "compUnifLie": false,
            "compDetect": -1,
            "callBS": false,
            "playerTrialScore": 6,
            "oppTrialScore": 4,
            "playerTotalScore": 247,
            "oppTotalScore": 183,
            "waitTime": 7138.325145690744,
            "responseTime": 2099,
            "catchQuestion": "What number did your opponent report rolling?",
            "catchKey": 4,
            "catchResponse": 4,
            "catchResponseTime": 3201,
            "trialTime": 15444
        },
        {
            "exptPart": "trial",
            "trialNumber": 66,
            "roleCurrent": "bullshitter",
            "diceSides": 10,
            "trueRoll": 7,
            "reportedRoll": 7,
            "compLie": -1,
            "compUnifLie": false,
            "compDetect": 0.6818181818181818,
            "callBS": false,
            "playerTrialScore": 7,
            "oppTrialScore": 3,
            "playerTotalScore": 254,
            "oppTotalScore": 186,
            "waitTime": 2098.244064496795,
            "responseTime": 14328,
            "catchQuestion": "What number did your opponent report rolling?",
            "catchKey": -1,
            "catchResponse": -1,
            "catchResponseTime": -1,
            "trialTime": 10612
        },
        {
            "exptPart": "trial",
            "trialNumber": 67,
            "roleCurrent": "bullshitDetector",
            "diceSides": 10,
            "trueRoll": 6,
            "reportedRoll": 6,
            "compLie": 2,
            "compUnifLie": false,
            "compDetect": -1,
            "callBS": false,
            "playerTrialScore": 4,
            "oppTrialScore": 6,
            "playerTotalScore": 258,
            "oppTotalScore": 192,
            "waitTime": 6214.345387231341,
            "responseTime": 2055,
            "catchQuestion": "What number did your opponent report rolling?",
            "catchKey": 6,
            "catchResponse": 6,
            "catchResponseTime": 3420,
            "trialTime": 13613
        },
        {
            "exptPart": "trial",
            "trialNumber": 68,
            "roleCurrent": "bullshitter",
            "diceSides": 10,
            "trueRoll": 2,
            "reportedRoll": 5,
            "compLie": -1,
            "compUnifLie": false,
            "compDetect": 0.5,
            "callBS": true,
            "playerTrialScore": -5,
            "oppTrialScore": 5,
            "playerTotalScore": 253,
            "oppTotalScore": 197,
            "waitTime": 2366.4938541348893,
            "responseTime": 13363,
            "catchQuestion": "What number did your opponent report rolling?",
            "catchKey": -1,
            "catchResponse": -1,
            "catchResponseTime": -1,
            "trialTime": 10083
        },
        {
            "exptPart": "trial",
            "trialNumber": 69,
            "roleCurrent": "bullshitDetector",
            "diceSides": 10,
            "trueRoll": 0,
            "reportedRoll": 9,
            "compLie": 9,
            "compUnifLie": false,
            "compDetect": -1,
            "callBS": true,
            "playerTrialScore": 5,
            "oppTrialScore": -5,
            "playerTotalScore": 258,
            "oppTotalScore": 192,
            "waitTime": 7075.400021672228,
            "responseTime": 1135,
            "catchQuestion": "What number did your opponent report rolling?",
            "catchKey": -1,
            "catchResponse": -1,
            "catchResponseTime": -1,
            "trialTime": 10275
        },
        {
            "exptPart": "trial",
            "trialNumber": 70,
            "roleCurrent": "bullshitter",
            "diceSides": 10,
            "trueRoll": 6,
            "reportedRoll": 6,
            "compLie": -1,
            "compUnifLie": false,
            "compDetect": 0.5909090909090909,
            "callBS": true,
            "playerTrialScore": 6,
            "oppTrialScore": -1,
            "playerTotalScore": 264,
            "oppTotalScore": 191,
            "waitTime": 2705.533782792597,
            "responseTime": 8113,
            "catchQuestion": "What number did you roll?",
            "catchKey": 6,
            "catchResponse": 6,
            "catchResponseTime": 3656,
            "trialTime": 14517
        },
        {
            "exptPart": "trial",
            "trialNumber": 71,
            "roleCurrent": "bullshitDetector",
            "diceSides": 10,
            "trueRoll": 5,
            "reportedRoll": 5,
            "compLie": 0,
            "compUnifLie": false,
            "compDetect": -1,
            "callBS": false,
            "playerTrialScore": 5,
            "oppTrialScore": 5,
            "playerTotalScore": 269,
            "oppTotalScore": 196,
            "waitTime": 6756.277096641452,
            "responseTime": 1317,
            "catchQuestion": "What number did you roll?",
            "catchKey": -1,
            "catchResponse": -1,
            "catchResponseTime": -1,
            "trialTime": 10148
        },
        {
            "exptPart": "trial",
            "trialNumber": 72,
            "roleCurrent": "bullshitter",
            "diceSides": 10,
            "trueRoll": 0,
            "reportedRoll": 8,
            "compLie": -1,
            "compUnifLie": false,
            "compDetect": 0.7727272727272727,
            "callBS": true,
            "playerTrialScore": -5,
            "oppTrialScore": 5,
            "playerTotalScore": 264,
            "oppTotalScore": 201,
            "waitTime": 2205.727327194164,
            "responseTime": 9134,
            "catchQuestion": "What number did you roll?",
            "catchKey": -1,
            "catchResponse": -1,
            "catchResponseTime": -1,
            "trialTime": 10237
        },
        {
            "exptPart": "trial",
            "trialNumber": 73,
            "roleCurrent": "bullshitDetector",
            "diceSides": 10,
            "trueRoll": 4,
            "reportedRoll": 6,
            "compLie": 6,
            "compUnifLie": false,
            "compDetect": -1,
            "callBS": false,
            "playerTrialScore": 4,
            "oppTrialScore": 6,
            "playerTotalScore": 268,
            "oppTotalScore": 207,
            "waitTime": 7347.434062409755,
            "responseTime": 1433,
            "catchQuestion": "What number did you roll?",
            "catchKey": -1,
            "catchResponse": -1,
            "catchResponseTime": -1,
            "trialTime": 10335
        },
        {
            "exptPart": "trial",
            "trialNumber": 74,
            "roleCurrent": "bullshitter",
            "diceSides": 10,
            "trueRoll": 6,
            "reportedRoll": 6,
            "compLie": -1,
            "compUnifLie": false,
            "compDetect": 0.5909090909090909,
            "callBS": false,
            "playerTrialScore": 6,
            "oppTrialScore": 4,
            "playerTotalScore": 274,
            "oppTotalScore": 211,
            "waitTime": 2284.2802705362656,
            "responseTime": 7714,
            "catchQuestion": "What number did you roll?",
            "catchKey": -1,
            "catchResponse": -1,
            "catchResponseTime": -1,
            "trialTime": 8961
        },
        {
            "exptPart": "trial",
            "trialNumber": 75,
            "roleCurrent": "bullshitDetector",
            "diceSides": 10,
            "trueRoll": 10,
            "reportedRoll": 10,
            "compLie": 0,
            "compUnifLie": false,
            "compDetect": -1,
            "callBS": false,
            "playerTrialScore": 0,
            "oppTrialScore": 10,
            "playerTotalScore": 274,
            "oppTotalScore": 221,
            "waitTime": 5420.759437941395,
            "responseTime": 1608,
            "catchQuestion": "What number did you roll?",
            "catchKey": -1,
            "catchResponse": -1,
            "catchResponseTime": -1,
            "trialTime": 8912
        },
        {
            "exptPart": "trial",
            "trialNumber": 76,
            "roleCurrent": "bullshitter",
            "diceSides": 10,
            "trueRoll": 9,
            "reportedRoll": 9,
            "compLie": -1,
            "compUnifLie": false,
            "compDetect": 0.8636363636363636,
            "callBS": true,
            "playerTrialScore": 9,
            "oppTrialScore": -4,
            "playerTotalScore": 283,
            "oppTotalScore": 217,
            "waitTime": 2289.5767687754947,
            "responseTime": 9542,
            "catchQuestion": "What number did you roll?",
            "catchKey": -1,
            "catchResponse": -1,
            "catchResponseTime": -1,
            "trialTime": 10771
        },
        {
            "exptPart": "trial",
            "trialNumber": 77,
            "roleCurrent": "bullshitDetector",
            "diceSides": 10,
            "trueRoll": 7,
            "reportedRoll": 7,
            "compLie": 1,
            "compUnifLie": false,
            "compDetect": -1,
            "callBS": false,
            "playerTrialScore": 3,
            "oppTrialScore": 7,
            "playerTotalScore": 286,
            "oppTotalScore": 224,
            "waitTime": 5737.136253187517,
            "responseTime": 3431,
            "catchQuestion": "What number did you roll?",
            "catchKey": -1,
            "catchResponse": -1,
            "catchResponseTime": -1,
            "trialTime": 11085
        },
        {
            "exptPart": "trial",
            "trialNumber": 78,
            "roleCurrent": "bullshitter",
            "diceSides": 10,
            "trueRoll": 10,
            "reportedRoll": 10,
            "compLie": -1,
            "compUnifLie": false,
            "compDetect": 0.9545454545454546,
            "callBS": true,
            "playerTrialScore": 10,
            "oppTrialScore": -5,
            "playerTotalScore": 296,
            "oppTotalScore": 219,
            "waitTime": 2701.4943590531366,
            "responseTime": 10649,
            "catchQuestion": "What number did you roll?",
            "catchKey": -1,
            "catchResponse": -1,
            "catchResponseTime": -1,
            "trialTime": 9979
        },
        {
            "exptPart": "trial",
            "trialNumber": 79,
            "roleCurrent": "bullshitDetector",
            "diceSides": 10,
            "trueRoll": 5,
            "reportedRoll": 10,
            "compLie": -1,
            "compUnifLie": true,
            "compDetect": -1,
            "callBS": false,
            "playerTrialScore": 0,
            "oppTrialScore": 10,
            "playerTotalScore": 296,
            "oppTotalScore": 229,
            "waitTime": 6028.609156920662,
            "responseTime": 2193,
            "catchQuestion": "What number did you roll?",
            "catchKey": -1,
            "catchResponse": -1,
            "catchResponseTime": -1,
            "trialTime": 9910
        },
        {
            "exptPart": "trial",
            "trialNumber": 80,
            "roleCurrent": "bullshitter",
            "diceSides": 10,
            "trueRoll": 7,
            "reportedRoll": 7,
            "compLie": -1,
            "compUnifLie": false,
            "compDetect": 0.6818181818181818,
            "callBS": false,
            "playerTrialScore": 7,
            "oppTrialScore": 3,
            "playerTotalScore": 303,
            "oppTotalScore": 232,
            "waitTime": 2268.7927529436142,
            "responseTime": 8359,
            "catchQuestion": "What number did you roll?",
            "catchKey": -1,
            "catchResponse": -1,
            "catchResponseTime": -1,
            "trialTime": 9901
        },
        {
            "exptPart": "trial",
            "trialNumber": 81,
            "roleCurrent": "bullshitDetector",
            "diceSides": 10,
            "trueRoll": 4,
            "reportedRoll": 6,
            "compLie": 6,
            "compUnifLie": false,
            "compDetect": -1,
            "callBS": false,
            "playerTrialScore": 4,
            "oppTrialScore": 6,
            "playerTotalScore": 307,
            "oppTotalScore": 238,
            "waitTime": 6749.20395976703,
            "responseTime": 1236,
            "catchQuestion": "What number did you roll?",
            "catchKey": -1,
            "catchResponse": -1,
            "catchResponseTime": -1,
            "trialTime": 10160
        },
        {
            "exptPart": "trial",
            "trialNumber": 82,
            "roleCurrent": "bullshitter",
            "diceSides": 10,
            "trueRoll": 2,
            "reportedRoll": 5,
            "compLie": -1,
            "compUnifLie": false,
            "compDetect": 0.5,
            "callBS": true,
            "playerTrialScore": -5,
            "oppTrialScore": 5,
            "playerTotalScore": 302,
            "oppTotalScore": 243,
            "waitTime": 2505.109858002592,
            "responseTime": 8454,
            "catchQuestion": "What number did you roll?",
            "catchKey": -1,
            "catchResponse": -1,
            "catchResponseTime": -1,
            "trialTime": 9963
        },
        {
            "exptPart": "trial",
            "trialNumber": 83,
            "roleCurrent": "bullshitDetector",
            "diceSides": 10,
            "trueRoll": 5,
            "reportedRoll": 5,
            "compLie": 4,
            "compUnifLie": false,
            "compDetect": -1,
            "callBS": false,
            "playerTrialScore": 5,
            "oppTrialScore": 5,
            "playerTotalScore": 307,
            "oppTotalScore": 248,
            "waitTime": 6489.8381133444145,
            "responseTime": 1188,
            "catchQuestion": "What number did you roll?",
            "catchKey": -1,
            "catchResponse": -1,
            "catchResponseTime": -1,
            "trialTime": 9256
        },
        {
            "exptPart": "trial",
            "trialNumber": 84,
            "roleCurrent": "bullshitter",
            "diceSides": 10,
            "trueRoll": 8,
            "reportedRoll": 8,
            "compLie": -1,
            "compUnifLie": false,
            "compDetect": 0.7727272727272727,
            "callBS": true,
            "playerTrialScore": 8,
            "oppTrialScore": -3,
            "playerTotalScore": 315,
            "oppTotalScore": 245,
            "waitTime": 2321.7167149793695,
            "responseTime": 6892,
            "catchQuestion": "What number did you roll?",
            "catchKey": -1,
            "catchResponse": -1,
            "catchResponseTime": -1,
            "trialTime": 8649
        },
        {
            "exptPart": "trial",
            "trialNumber": 85,
            "roleCurrent": "bullshitDetector",
            "diceSides": 10,
            "trueRoll": 1,
            "reportedRoll": 3,
            "compLie": 3,
            "compUnifLie": false,
            "compDetect": -1,
            "callBS": false,
            "playerTrialScore": 7,
            "oppTrialScore": 3,
            "playerTotalScore": 322,
            "oppTotalScore": 248,
            "waitTime": 6297.882725732874,
            "responseTime": 1529,
            "catchQuestion": "What number did you roll?",
            "catchKey": -1,
            "catchResponse": -1,
            "catchResponseTime": -1,
            "trialTime": 10614
        },
        {
            "exptPart": "trial",
            "trialNumber": 86,
            "roleCurrent": "bullshitter",
            "diceSides": 10,
            "trueRoll": 2,
            "reportedRoll": 4,
            "compLie": -1,
            "compUnifLie": false,
            "compDetect": 0.4090909090909091,
            "callBS": false,
            "playerTrialScore": 4,
            "oppTrialScore": 6,
            "playerTotalScore": 326,
            "oppTotalScore": 254,
            "waitTime": 2932.478113449835,
            "responseTime": 9507,
            "catchQuestion": "What number did you roll?",
            "catchKey": 2,
            "catchResponse": 2,
            "catchResponseTime": 3374,
            "trialTime": 13366
        },
        {
            "exptPart": "trial",
            "trialNumber": 87,
            "roleCurrent": "bullshitDetector",
            "diceSides": 10,
            "trueRoll": 3,
            "reportedRoll": 7,
            "compLie": 7,
            "compUnifLie": false,
            "compDetect": -1,
            "callBS": true,
            "playerTrialScore": 5,
            "oppTrialScore": -5,
            "playerTotalScore": 331,
            "oppTotalScore": 249,
            "waitTime": 5479.646142171687,
            "responseTime": 3247,
            "catchQuestion": "What number did you roll?",
            "catchKey": -1,
            "catchResponse": -1,
            "catchResponseTime": -1,
            "trialTime": 10776
        },
        {
            "exptPart": "trial",
            "trialNumber": 88,
            "roleCurrent": "bullshitter",
            "diceSides": 10,
            "trueRoll": 1,
            "reportedRoll": 3,
            "compLie": -1,
            "compUnifLie": false,
            "compDetect": 0.3181818181818182,
            "callBS": false,
            "playerTrialScore": 3,
            "oppTrialScore": 7,
            "playerTotalScore": 334,
            "oppTotalScore": 256,
            "waitTime": 2726.650729853315,
            "responseTime": 10304,
            "catchQuestion": "What number did you roll?",
            "catchKey": -1,
            "catchResponse": -1,
            "catchResponseTime": -1,
            "trialTime": 10319
        },
        {
            "exptPart": "trial",
            "trialNumber": 89,
            "roleCurrent": "bullshitDetector",
            "diceSides": 10,
            "trueRoll": 4,
            "reportedRoll": 4,
            "compLie": 1,
            "compUnifLie": false,
            "compDetect": -1,
            "callBS": false,
            "playerTrialScore": 6,
            "oppTrialScore": 4,
            "playerTotalScore": 340,
            "oppTotalScore": 260,
            "waitTime": 6105.928081691482,
            "responseTime": 1274,
            "catchQuestion": "What number did you roll?",
            "catchKey": -1,
            "catchResponse": -1,
            "catchResponseTime": -1,
            "trialTime": 9469
        },
        {
            "exptPart": "trial",
            "trialNumber": 90,
            "roleCurrent": "bullshitter",
            "diceSides": 10,
            "trueRoll": 9,
            "reportedRoll": 9,
            "compLie": -1,
            "compUnifLie": false,
            "compDetect": 0.8636363636363636,
            "callBS": true,
            "playerTrialScore": 9,
            "oppTrialScore": -4,
            "playerTotalScore": 349,
            "oppTotalScore": 256,
            "waitTime": 2998.1549865979364,
            "responseTime": 7519,
            "catchQuestion": "What number did you roll?",
            "catchKey": -1,
            "catchResponse": -1,
            "catchResponseTime": -1,
            "trialTime": 9484
        },
        {
            "exptPart": "trial",
            "trialNumber": 91,
            "roleCurrent": "bullshitDetector",
            "diceSides": 10,
            "trueRoll": 9,
            "reportedRoll": 9,
            "compLie": 9,
            "compUnifLie": false,
            "compDetect": -1,
            "callBS": false,
            "playerTrialScore": 1,
            "oppTrialScore": 9,
            "playerTotalScore": 350,
            "oppTotalScore": 265,
            "waitTime": 5695.887423529479,
            "responseTime": 1467,
            "catchQuestion": "What number did you roll?",
            "catchKey": -1,
            "catchResponse": -1,
            "catchResponseTime": -1,
            "trialTime": 8842
        },
        {
            "exptPart": "trial",
            "trialNumber": 92,
            "roleCurrent": "bullshitter",
            "diceSides": 10,
            "trueRoll": 8,
            "reportedRoll": 8,
            "compLie": -1,
            "compUnifLie": false,
            "compDetect": 0.7727272727272727,
            "callBS": true,
            "playerTrialScore": 8,
            "oppTrialScore": -3,
            "playerTotalScore": 358,
            "oppTotalScore": 262,
            "waitTime": 2327.4019113891927,
            "responseTime": 7076,
            "catchQuestion": "What number did you roll?",
            "catchKey": -1,
            "catchResponse": -1,
            "catchResponseTime": -1,
            "trialTime": 8206
        },
        {
            "exptPart": "trial",
            "trialNumber": 93,
            "roleCurrent": "bullshitDetector",
            "diceSides": 10,
            "trueRoll": 6,
            "reportedRoll": 0,
            "compLie": -1,
            "compUnifLie": true,
            "compDetect": -1,
            "callBS": false,
            "playerTrialScore": 10,
            "oppTrialScore": 0,
            "playerTotalScore": 368,
            "oppTotalScore": 262,
            "waitTime": 7461.449863636215,
            "responseTime": 3202,
            "catchQuestion": "What number did you roll?",
            "catchKey": -1,
            "catchResponse": -1,
            "catchResponseTime": -1,
            "trialTime": 12978
        },
        {
            "exptPart": "trial",
            "trialNumber": 94,
            "roleCurrent": "bullshitter",
            "diceSides": 10,
            "trueRoll": 5,
            "reportedRoll": 5,
            "compLie": -1,
            "compUnifLie": false,
            "compDetect": 0.5,
            "callBS": false,
            "playerTrialScore": 5,
            "oppTrialScore": 5,
            "playerTotalScore": 373,
            "oppTotalScore": 267,
            "waitTime": 2086.1190438776393,
            "responseTime": 11235,
            "catchQuestion": "What number did you roll?",
            "catchKey": -1,
            "catchResponse": -1,
            "catchResponseTime": -1,
            "trialTime": 9590
        },
        {
            "exptPart": "trial",
            "trialNumber": 95,
            "roleCurrent": "bullshitDetector",
            "diceSides": 10,
            "trueRoll": 3,
            "reportedRoll": 7,
            "compLie": 7,
            "compUnifLie": false,
            "compDetect": -1,
            "callBS": false,
            "playerTrialScore": 3,
            "oppTrialScore": 7,
            "playerTotalScore": 376,
            "oppTotalScore": 274,
            "waitTime": 6266.046977528016,
            "responseTime": 1311,
            "catchQuestion": "What number did your opponent report rolling?",
            "catchKey": 7,
            "catchResponse": 7,
            "catchResponseTime": -3119,
            "trialTime": 6484
        },
        {
            "exptPart": "trial",
            "trialNumber": 96,
            "roleCurrent": "bullshitter",
            "diceSides": 10,
            "trueRoll": 1,
            "reportedRoll": 3,
            "compLie": -1,
            "compUnifLie": false,
            "compDetect": 0.3181818181818182,
            "callBS": false,
            "playerTrialScore": 3,
            "oppTrialScore": 7,
            "playerTotalScore": 379,
            "oppTotalScore": 281,
            "waitTime": 2533.3319958241245,
            "responseTime": 4429,
            "catchQuestion": "What number did your opponent report rolling?",
            "catchKey": -1,
            "catchResponse": -1,
            "catchResponseTime": -1,
            "trialTime": 8369
        },
        {
            "exptPart": "trial",
            "trialNumber": 97,
            "roleCurrent": "bullshitDetector",
            "diceSides": 10,
            "trueRoll": 0,
            "reportedRoll": 4,
            "compLie": 4,
            "compUnifLie": false,
            "compDetect": -1,
            "callBS": false,
            "playerTrialScore": 6,
            "oppTrialScore": 4,
            "playerTotalScore": 385,
            "oppTotalScore": 285,
            "waitTime": 5707.042428957245,
            "responseTime": 1454,
            "catchQuestion": "What number did your opponent report rolling?",
            "catchKey": -1,
            "catchResponse": -1,
            "catchResponseTime": -1,
            "trialTime": 11146
        },
        {
            "exptPart": "trial",
            "trialNumber": 98,
            "roleCurrent": "bullshitter",
            "diceSides": 10,
            "trueRoll": 0,
            "reportedRoll": 2,
            "compLie": -1,
            "compUnifLie": false,
            "compDetect": 0.22727272727272727,
            "callBS": false,
            "playerTrialScore": 2,
            "oppTrialScore": 8,
            "playerTotalScore": 387,
            "oppTotalScore": 293,
            "waitTime": 2463.457691263072,
            "responseTime": 11806,
            "catchQuestion": "What number did your opponent report rolling?",
            "catchKey": -1,
            "catchResponse": -1,
            "catchResponseTime": -1,
            "trialTime": 11024
        },
        {
            "exptPart": "trial",
            "trialNumber": 99,
            "roleCurrent": "bullshitDetector",
            "diceSides": 10,
            "trueRoll": 3,
            "reportedRoll": 3,
            "compLie": 0,
            "compUnifLie": false,
            "compDetect": -1,
            "callBS": false,
            "playerTrialScore": 7,
            "oppTrialScore": 3,
            "playerTotalScore": 394,
            "oppTotalScore": 296,
            "waitTime": 6545.746643875313,
            "responseTime": 1386,
            "catchQuestion": "What number did your opponent report rolling?",
            "catchKey": -1,
            "catchResponse": -1,
            "catchResponseTime": -1,
            "trialTime": 9453
        },
        {
            "exptPart": "trial",
            "trialNumber": 100,
            "roleCurrent": "bullshitter",
            "diceSides": 10,
            "trueRoll": 3,
            "reportedRoll": 3,
            "compLie": -1,
            "compUnifLie": false,
            "compDetect": 0.3181818181818182,
            "callBS": false,
            "playerTrialScore": 3,
            "oppTrialScore": 7,
            "playerTotalScore": 397,
            "oppTotalScore": 303,
            "waitTime": 2648.263565901456,
            "responseTime": 8598,
            "catchQuestion": "What number did your opponent report rolling?",
            "catchKey": -1,
            "catchResponse": -1,
            "catchResponseTime": -1,
            "trialTime": 12797
        }
    ]
}