{
    "client": {
        "type": "sona",
        "experiment_id": 1505,
        "credit_token": "b20092f9d3b34a378ee654bcc50710ea",
        "survey_code": "33096",
        "sid": "sona-33096",
        "window": {
            "width": 1536,
            "height": 760
        },
        "screen": {
            "width": 1536,
            "height": 864
        },
        "userAgent": "Mozilla\/5.0 (Windows NT 10.0; Win64; x64) AppleWebKit\/537.36 (KHTML, like Gecko) Chrome\/85.0.4183.83 Safari\/537.36",
        "score": 0,
        "bonus": 0
    },
    "expt": {
        "saveURL": "submit.simple.php",
        "trials": 100,
        "practiceTrials": 4,
        "diceSides": 10,
        "roles": [
            "bullshitter",
            "bullshitDetector"
        ],
        "roleFirst": "bullshitter",
        "allTrialProbs": [
            0.2,
            0.5,
            0.8
        ],
        "occlude": "computer",
        "catchTrials": [
            69,
            41,
            48,
            35,
            14,
            39,
            29,
            10,
            40,
            80,
            75,
            77,
            70,
            51,
            74
        ],
        "stat": {
            "playerTotalScore": 241,
            "oppTotalScore": 289,
            "truth": 19,
            "truth_noBS": 3,
            "truth_BS": 16,
            "lie": 31,
            "lie_noBS": 16,
            "lie_BS": 15,
            "noBS": 17,
            "noBS_truth": 5,
            "noBS_lie": 12,
            "BS": 33,
            "BS_truth": 18,
            "BS_lie": 15
        },
        "sona": {
            "experiment_id": 1505,
            "credit_token": "b20092f9d3b34a378ee654bcc50710ea"
        },
        "debug": false
    },
    "trials": [
        {
            "exptPart": "practice",
            "trialNumber": 1,
            "roleCurrent": "bullshitter",
            "diceSides": 10,
            "trueRoll": 1,
            "reportedRoll": 4,
            "compLie": -1,
            "compUnifLie": false,
            "compDetect": 0.4090909090909091,
            "callBS": false,
            "playerTrialScore": 4,
            "oppTrialScore": 6,
            "playerTotalScore": 4,
            "oppTotalScore": 6,
            "waitTime": 2177.82974838141,
            "responseTime": 1598988897652,
            "catchQuestion": "What number did you roll?",
            "catchKey": 1,
            "catchResponse": 1,
            "catchResponseTime": 5536,
            "trialTime": 41994
        },
        {
            "exptPart": "practice",
            "trialNumber": 2,
            "roleCurrent": "bullshitDetector",
            "diceSides": 10,
            "trueRoll": 10,
            "reportedRoll": 10,
            "compLie": 2,
            "compUnifLie": false,
            "compDetect": -1,
            "callBS": true,
            "playerTrialScore": -5,
            "oppTrialScore": 10,
            "playerTotalScore": -1,
            "oppTotalScore": 16,
            "waitTime": 7494.513860749172,
            "responseTime": 4956,
            "catchQuestion": "What number did your opponent report rolling?",
            "catchKey": 10,
            "catchResponse": 10,
            "catchResponseTime": 5434,
            "trialTime": 21767
        },
        {
            "exptPart": "practice",
            "trialNumber": 3,
            "roleCurrent": "bullshitter",
            "diceSides": 10,
            "trueRoll": 2,
            "reportedRoll": 2,
            "compLie": -1,
            "compUnifLie": false,
            "compDetect": 0.22727272727272727,
            "callBS": false,
            "playerTrialScore": 2,
            "oppTrialScore": 8,
            "playerTotalScore": 1,
            "oppTotalScore": 24,
            "waitTime": 2182.2946604140498,
            "responseTime": 20917,
            "catchQuestion": "What number did your opponent report rolling?",
            "catchKey": -1,
            "catchResponse": -1,
            "catchResponseTime": -1,
            "trialTime": 13382
        },
        {
            "exptPart": "practice",
            "trialNumber": 4,
            "roleCurrent": "bullshitDetector",
            "diceSides": 10,
            "trueRoll": 3,
            "reportedRoll": 10,
            "compLie": 10,
            "compUnifLie": false,
            "compDetect": -1,
            "callBS": true,
            "playerTrialScore": 5,
            "oppTrialScore": -5,
            "playerTotalScore": 6,
            "oppTotalScore": 19,
            "waitTime": 7477.540726028788,
            "responseTime": 2324,
            "catchQuestion": "What number did your opponent report rolling?",
            "catchKey": -1,
            "catchResponse": -1,
            "catchResponseTime": -1,
            "trialTime": 15157
        },
        {
            "exptPart": "trial",
            "trialNumber": 1,
            "roleCurrent": "bullshitter",
            "diceSides": 10,
            "trueRoll": 7,
            "reportedRoll": 8,
            "compLie": -1,
            "compUnifLie": false,
            "compDetect": 0.7727272727272727,
            "callBS": false,
            "playerTrialScore": 8,
            "oppTrialScore": 2,
            "playerTotalScore": 8,
            "oppTotalScore": 2,
            "waitTime": 2186.6808746825864,
            "responseTime": 20967,
            "catchQuestion": "What number did your opponent report rolling?",
            "catchKey": -1,
            "catchResponse": -1,
            "catchResponseTime": -1,
            "trialTime": 12396
        },
        {
            "exptPart": "trial",
            "trialNumber": 2,
            "roleCurrent": "bullshitDetector",
            "diceSides": 10,
            "trueRoll": 10,
            "reportedRoll": 10,
            "compLie": 9,
            "compUnifLie": false,
            "compDetect": -1,
            "callBS": true,
            "playerTrialScore": -5,
            "oppTrialScore": 10,
            "playerTotalScore": 3,
            "oppTotalScore": 12,
            "waitTime": 6719.625513829815,
            "responseTime": 1824,
            "catchQuestion": "What number did your opponent report rolling?",
            "catchKey": -1,
            "catchResponse": -1,
            "catchResponseTime": -1,
            "trialTime": 10679
        },
        {
            "exptPart": "trial",
            "trialNumber": 3,
            "roleCurrent": "bullshitter",
            "diceSides": 10,
            "trueRoll": 1,
            "reportedRoll": 4,
            "compLie": -1,
            "compUnifLie": false,
            "compDetect": 0.4090909090909091,
            "callBS": false,
            "playerTrialScore": 4,
            "oppTrialScore": 6,
            "playerTotalScore": 7,
            "oppTotalScore": 18,
            "waitTime": 2345.0147231917085,
            "responseTime": 9960,
            "catchQuestion": "What number did your opponent report rolling?",
            "catchKey": -1,
            "catchResponse": -1,
            "catchResponseTime": -1,
            "trialTime": 9997
        },
        {
            "exptPart": "trial",
            "trialNumber": 4,
            "roleCurrent": "bullshitDetector",
            "diceSides": 10,
            "trueRoll": 10,
            "reportedRoll": 10,
            "compLie": 5,
            "compUnifLie": false,
            "compDetect": -1,
            "callBS": true,
            "playerTrialScore": -5,
            "oppTrialScore": 10,
            "playerTotalScore": 2,
            "oppTotalScore": 28,
            "waitTime": 5824.26685410201,
            "responseTime": 1567,
            "catchQuestion": "What number did your opponent report rolling?",
            "catchKey": -1,
            "catchResponse": -1,
            "catchResponseTime": -1,
            "trialTime": 10990
        },
        {
            "exptPart": "trial",
            "trialNumber": 5,
            "roleCurrent": "bullshitter",
            "diceSides": 10,
            "trueRoll": 3,
            "reportedRoll": 2,
            "compLie": -1,
            "compUnifLie": false,
            "compDetect": 0.22727272727272727,
            "callBS": true,
            "playerTrialScore": -5,
            "oppTrialScore": 5,
            "playerTotalScore": -3,
            "oppTotalScore": 33,
            "waitTime": 2162.8715444147383,
            "responseTime": 13073,
            "catchQuestion": "What number did your opponent report rolling?",
            "catchKey": -1,
            "catchResponse": -1,
            "catchResponseTime": -1,
            "trialTime": 12676
        },
        {
            "exptPart": "trial",
            "trialNumber": 6,
            "roleCurrent": "bullshitDetector",
            "diceSides": 10,
            "trueRoll": 7,
            "reportedRoll": 7,
            "compLie": 3,
            "compUnifLie": false,
            "compDetect": -1,
            "callBS": true,
            "playerTrialScore": -2,
            "oppTrialScore": 7,
            "playerTotalScore": -5,
            "oppTotalScore": 40,
            "waitTime": 6951.721054784778,
            "responseTime": 3620,
            "catchQuestion": "What number did your opponent report rolling?",
            "catchKey": -1,
            "catchResponse": -1,
            "catchResponseTime": -1,
            "trialTime": 12888
        },
        {
            "exptPart": "trial",
            "trialNumber": 7,
            "roleCurrent": "bullshitter",
            "diceSides": 10,
            "trueRoll": 7,
            "reportedRoll": 2,
            "compLie": -1,
            "compUnifLie": false,
            "compDetect": 0.22727272727272727,
            "callBS": true,
            "playerTrialScore": -5,
            "oppTrialScore": 5,
            "playerTotalScore": -10,
            "oppTotalScore": 45,
            "waitTime": 2898.3017094656743,
            "responseTime": 20634,
            "catchQuestion": "What number did your opponent report rolling?",
            "catchKey": -1,
            "catchResponse": -1,
            "catchResponseTime": -1,
            "trialTime": 15921
        },
        {
            "exptPart": "trial",
            "trialNumber": 8,
            "roleCurrent": "bullshitDetector",
            "diceSides": 10,
            "trueRoll": 9,
            "reportedRoll": 10,
            "compLie": 10,
            "compUnifLie": false,
            "compDetect": -1,
            "callBS": true,
            "playerTrialScore": 5,
            "oppTrialScore": -5,
            "playerTotalScore": -5,
            "oppTotalScore": 40,
            "waitTime": 5515.7699026359605,
            "responseTime": 2686,
            "catchQuestion": "What number did your opponent report rolling?",
            "catchKey": -1,
            "catchResponse": -1,
            "catchResponseTime": -1,
            "trialTime": 10040
        },
        {
            "exptPart": "trial",
            "trialNumber": 9,
            "roleCurrent": "bullshitter",
            "diceSides": 10,
            "trueRoll": 2,
            "reportedRoll": 3,
            "compLie": -1,
            "compUnifLie": false,
            "compDetect": 0.3181818181818182,
            "callBS": false,
            "playerTrialScore": 3,
            "oppTrialScore": 7,
            "playerTotalScore": -2,
            "oppTotalScore": 47,
            "waitTime": 2770.9997196450768,
            "responseTime": 19223,
            "catchQuestion": "What number did your opponent report rolling?",
            "catchKey": -1,
            "catchResponse": -1,
            "catchResponseTime": -1,
            "trialTime": 22816
        },
        {
            "exptPart": "trial",
            "trialNumber": 10,
            "roleCurrent": "bullshitDetector",
            "diceSides": 10,
            "trueRoll": 5,
            "reportedRoll": 6,
            "compLie": -1,
            "compUnifLie": true,
            "compDetect": -1,
            "callBS": false,
            "playerTrialScore": 4,
            "oppTrialScore": 6,
            "playerTotalScore": 2,
            "oppTotalScore": 53,
            "waitTime": 6688.741006653248,
            "responseTime": 839,
            "catchQuestion": "What number did your opponent report rolling?",
            "catchKey": -1,
            "catchResponse": -1,
            "catchResponseTime": -1,
            "trialTime": 9366
        },
        {
            "exptPart": "trial",
            "trialNumber": 11,
            "roleCurrent": "bullshitter",
            "diceSides": 10,
            "trueRoll": 6,
            "reportedRoll": 2,
            "compLie": -1,
            "compUnifLie": false,
            "compDetect": 0.22727272727272727,
            "callBS": false,
            "playerTrialScore": 2,
            "oppTrialScore": 8,
            "playerTotalScore": 4,
            "oppTotalScore": 61,
            "waitTime": 2406.752182150489,
            "responseTime": 12274,
            "catchQuestion": "What number did you roll?",
            "catchKey": 6,
            "catchResponse": 2,
            "catchResponseTime": 5438,
            "trialTime": 20577
        },
        {
            "exptPart": "trial",
            "trialNumber": 12,
            "roleCurrent": "bullshitDetector",
            "diceSides": 10,
            "trueRoll": 9,
            "reportedRoll": 9,
            "compLie": 6,
            "compUnifLie": false,
            "compDetect": -1,
            "callBS": true,
            "playerTrialScore": -4,
            "oppTrialScore": 9,
            "playerTotalScore": 0,
            "oppTotalScore": 70,
            "waitTime": 5922.65903633131,
            "responseTime": 1028,
            "catchQuestion": "What number did you roll?",
            "catchKey": -1,
            "catchResponse": -1,
            "catchResponseTime": -1,
            "trialTime": 9653
        },
        {
            "exptPart": "trial",
            "trialNumber": 13,
            "roleCurrent": "bullshitter",
            "diceSides": 10,
            "trueRoll": 1,
            "reportedRoll": 7,
            "compLie": -1,
            "compUnifLie": false,
            "compDetect": 0.6818181818181818,
            "callBS": true,
            "playerTrialScore": -5,
            "oppTrialScore": 5,
            "playerTotalScore": -5,
            "oppTotalScore": 75,
            "waitTime": 3186.992215297335,
            "responseTime": 12296,
            "catchQuestion": "What number did you roll?",
            "catchKey": -1,
            "catchResponse": -1,
            "catchResponseTime": -1,
            "trialTime": 13754
        },
        {
            "exptPart": "trial",
            "trialNumber": 14,
            "roleCurrent": "bullshitDetector",
            "diceSides": 10,
            "trueRoll": 3,
            "reportedRoll": 3,
            "compLie": 0,
            "compUnifLie": false,
            "compDetect": -1,
            "callBS": false,
            "playerTrialScore": 7,
            "oppTrialScore": 3,
            "playerTotalScore": 2,
            "oppTotalScore": 78,
            "waitTime": 7315.082441112734,
            "responseTime": 2113,
            "catchQuestion": "What number did you roll?",
            "catchKey": -1,
            "catchResponse": -1,
            "catchResponseTime": -1,
            "trialTime": 13230
        },
        {
            "exptPart": "trial",
            "trialNumber": 15,
            "roleCurrent": "bullshitter",
            "diceSides": 10,
            "trueRoll": 4,
            "reportedRoll": 3,
            "compLie": -1,
            "compUnifLie": false,
            "compDetect": 0.3181818181818182,
            "callBS": false,
            "playerTrialScore": 3,
            "oppTrialScore": 7,
            "playerTotalScore": 5,
            "oppTotalScore": 85,
            "waitTime": 2647.2453631030476,
            "responseTime": 69026,
            "catchQuestion": "What number did you roll?",
            "catchKey": 4,
            "catchResponse": 4,
            "catchResponseTime": 4806,
            "trialTime": 75606
        },
        {
            "exptPart": "trial",
            "trialNumber": 16,
            "roleCurrent": "bullshitDetector",
            "diceSides": 10,
            "trueRoll": 3,
            "reportedRoll": 9,
            "compLie": 9,
            "compUnifLie": false,
            "compDetect": -1,
            "callBS": true,
            "playerTrialScore": 5,
            "oppTrialScore": -5,
            "playerTotalScore": 10,
            "oppTotalScore": 80,
            "waitTime": 6716.445423516048,
            "responseTime": 2681,
            "catchQuestion": "What number did you roll?",
            "catchKey": -1,
            "catchResponse": -1,
            "catchResponseTime": -1,
            "trialTime": 13418
        },
        {
            "exptPart": "trial",
            "trialNumber": 17,
            "roleCurrent": "bullshitter",
            "diceSides": 10,
            "trueRoll": 3,
            "reportedRoll": 4,
            "compLie": -1,
            "compUnifLie": false,
            "compDetect": 0.4090909090909091,
            "callBS": false,
            "playerTrialScore": 4,
            "oppTrialScore": 6,
            "playerTotalScore": 14,
            "oppTotalScore": 86,
            "waitTime": 2904.1784279708454,
            "responseTime": 23889,
            "catchQuestion": "What number did you roll?",
            "catchKey": -1,
            "catchResponse": -1,
            "catchResponseTime": -1,
            "trialTime": 31732
        },
        {
            "exptPart": "trial",
            "trialNumber": 18,
            "roleCurrent": "bullshitDetector",
            "diceSides": 10,
            "trueRoll": 3,
            "reportedRoll": 8,
            "compLie": -1,
            "compUnifLie": true,
            "compDetect": -1,
            "callBS": true,
            "playerTrialScore": 5,
            "oppTrialScore": -5,
            "playerTotalScore": 19,
            "oppTotalScore": 81,
            "waitTime": 6842.370904327199,
            "responseTime": 91231,
            "catchQuestion": "What number did you roll?",
            "catchKey": -1,
            "catchResponse": -1,
            "catchResponseTime": -1,
            "trialTime": 102379
        },
        {
            "exptPart": "trial",
            "trialNumber": 19,
            "roleCurrent": "bullshitter",
            "diceSides": 10,
            "trueRoll": 9,
            "reportedRoll": 3,
            "compLie": -1,
            "compUnifLie": false,
            "compDetect": 0.3181818181818182,
            "callBS": false,
            "playerTrialScore": 3,
            "oppTrialScore": 7,
            "playerTotalScore": 22,
            "oppTotalScore": 88,
            "waitTime": 3048.940753153256,
            "responseTime": 102403,
            "catchQuestion": "What number did you roll?",
            "catchKey": -1,
            "catchResponse": -1,
            "catchResponseTime": -1,
            "trialTime": 12014
        },
        {
            "exptPart": "trial",
            "trialNumber": 20,
            "roleCurrent": "bullshitDetector",
            "diceSides": 10,
            "trueRoll": 10,
            "reportedRoll": 9,
            "compLie": -1,
            "compUnifLie": true,
            "compDetect": -1,
            "callBS": false,
            "playerTrialScore": 1,
            "oppTrialScore": 9,
            "playerTotalScore": 23,
            "oppTotalScore": 97,
            "waitTime": 6750.706551079908,
            "responseTime": 1901,
            "catchQuestion": "What number did you roll?",
            "catchKey": -1,
            "catchResponse": -1,
            "catchResponseTime": -1,
            "trialTime": 12016
        },
        {
            "exptPart": "trial",
            "trialNumber": 21,
            "roleCurrent": "bullshitter",
            "diceSides": 10,
            "trueRoll": 1,
            "reportedRoll": 3,
            "compLie": -1,
            "compUnifLie": false,
            "compDetect": 0.3181818181818182,
            "callBS": false,
            "playerTrialScore": 3,
            "oppTrialScore": 7,
            "playerTotalScore": 26,
            "oppTotalScore": 104,
            "waitTime": 2936.4784080506374,
            "responseTime": 11649,
            "catchQuestion": "What number did you roll?",
            "catchKey": -1,
            "catchResponse": -1,
            "catchResponseTime": -1,
            "trialTime": 14198
        },
        {
            "exptPart": "trial",
            "trialNumber": 22,
            "roleCurrent": "bullshitDetector",
            "diceSides": 10,
            "trueRoll": 9,
            "reportedRoll": 9,
            "compLie": 2,
            "compUnifLie": false,
            "compDetect": -1,
            "callBS": true,
            "playerTrialScore": -4,
            "oppTrialScore": 9,
            "playerTotalScore": 22,
            "oppTotalScore": 113,
            "waitTime": 5520.186800411993,
            "responseTime": 2594,
            "catchQuestion": "What number did you roll?",
            "catchKey": -1,
            "catchResponse": -1,
            "catchResponseTime": -1,
            "trialTime": 11235
        },
        {
            "exptPart": "trial",
            "trialNumber": 23,
            "roleCurrent": "bullshitter",
            "diceSides": 10,
            "trueRoll": 6,
            "reportedRoll": 3,
            "compLie": -1,
            "compUnifLie": false,
            "compDetect": 0.3181818181818182,
            "callBS": true,
            "playerTrialScore": -5,
            "oppTrialScore": 5,
            "playerTotalScore": 17,
            "oppTotalScore": 118,
            "waitTime": 2692.2917285674675,
            "responseTime": 12896,
            "catchQuestion": "What number did you roll?",
            "catchKey": -1,
            "catchResponse": -1,
            "catchResponseTime": -1,
            "trialTime": 11506
        },
        {
            "exptPart": "trial",
            "trialNumber": 24,
            "roleCurrent": "bullshitDetector",
            "diceSides": 10,
            "trueRoll": 9,
            "reportedRoll": 9,
            "compLie": 5,
            "compUnifLie": false,
            "compDetect": -1,
            "callBS": true,
            "playerTrialScore": -4,
            "oppTrialScore": 9,
            "playerTotalScore": 13,
            "oppTotalScore": 127,
            "waitTime": 5753.31982189255,
            "responseTime": 2026,
            "catchQuestion": "What number did you roll?",
            "catchKey": -1,
            "catchResponse": -1,
            "catchResponseTime": -1,
            "trialTime": 45144
        },
        {
            "exptPart": "trial",
            "trialNumber": 25,
            "roleCurrent": "bullshitter",
            "diceSides": 10,
            "trueRoll": 6,
            "reportedRoll": 2,
            "compLie": -1,
            "compUnifLie": false,
            "compDetect": 0.22727272727272727,
            "callBS": false,
            "playerTrialScore": 2,
            "oppTrialScore": 8,
            "playerTotalScore": 15,
            "oppTotalScore": 135,
            "waitTime": 2705.6239936460515,
            "responseTime": 47120,
            "catchQuestion": "What number did you roll?",
            "catchKey": -1,
            "catchResponse": -1,
            "catchResponseTime": -1,
            "trialTime": 12349
        },
        {
            "exptPart": "trial",
            "trialNumber": 26,
            "roleCurrent": "bullshitDetector",
            "diceSides": 10,
            "trueRoll": 1,
            "reportedRoll": 5,
            "compLie": 5,
            "compUnifLie": false,
            "compDetect": -1,
            "callBS": false,
            "playerTrialScore": 5,
            "oppTrialScore": 5,
            "playerTotalScore": 20,
            "oppTotalScore": 140,
            "waitTime": 5653.842213390735,
            "responseTime": 85634,
            "catchQuestion": "What number did you roll?",
            "catchKey": -1,
            "catchResponse": -1,
            "catchResponseTime": -1,
            "trialTime": 93441
        },
        {
            "exptPart": "trial",
            "trialNumber": 27,
            "roleCurrent": "bullshitter",
            "diceSides": 10,
            "trueRoll": 3,
            "reportedRoll": 3,
            "compLie": -1,
            "compUnifLie": false,
            "compDetect": 0.3181818181818182,
            "callBS": true,
            "playerTrialScore": 3,
            "oppTrialScore": 2,
            "playerTotalScore": 23,
            "oppTotalScore": 142,
            "waitTime": 2103.4132703585465,
            "responseTime": 93949,
            "catchQuestion": "What number did you roll?",
            "catchKey": -1,
            "catchResponse": -1,
            "catchResponseTime": -1,
            "trialTime": 13826
        },
        {
            "exptPart": "trial",
            "trialNumber": 28,
            "roleCurrent": "bullshitDetector",
            "diceSides": 10,
            "trueRoll": 10,
            "reportedRoll": 9,
            "compLie": -1,
            "compUnifLie": true,
            "compDetect": -1,
            "callBS": true,
            "playerTrialScore": 5,
            "oppTrialScore": -5,
            "playerTotalScore": 28,
            "oppTotalScore": 137,
            "waitTime": 5437.487876387049,
            "responseTime": 3721,
            "catchQuestion": "What number did you roll?",
            "catchKey": -1,
            "catchResponse": -1,
            "catchResponseTime": -1,
            "trialTime": 12536
        },
        {
            "exptPart": "trial",
            "trialNumber": 29,
            "roleCurrent": "bullshitter",
            "diceSides": 10,
            "trueRoll": 5,
            "reportedRoll": 2,
            "compLie": -1,
            "compUnifLie": false,
            "compDetect": 0.22727272727272727,
            "callBS": false,
            "playerTrialScore": 2,
            "oppTrialScore": 8,
            "playerTotalScore": 30,
            "oppTotalScore": 145,
            "waitTime": 2667.7285721497337,
            "responseTime": 16388,
            "catchQuestion": "What number did you roll?",
            "catchKey": -1,
            "catchResponse": -1,
            "catchResponseTime": -1,
            "trialTime": 21635
        },
        {
            "exptPart": "trial",
            "trialNumber": 30,
            "roleCurrent": "bullshitDetector",
            "diceSides": 10,
            "trueRoll": 5,
            "reportedRoll": 8,
            "compLie": 8,
            "compUnifLie": false,
            "compDetect": -1,
            "callBS": true,
            "playerTrialScore": 5,
            "oppTrialScore": -5,
            "playerTotalScore": 35,
            "oppTotalScore": 140,
            "waitTime": 5804.995031175474,
            "responseTime": 1207,
            "catchQuestion": "What number did your opponent report rolling?",
            "catchKey": 8,
            "catchResponse": 3,
            "catchResponseTime": 2736,
            "trialTime": 14551
        },
        {
            "exptPart": "trial",
            "trialNumber": 31,
            "roleCurrent": "bullshitter",
            "diceSides": 10,
            "trueRoll": 8,
            "reportedRoll": 2,
            "compLie": -1,
            "compUnifLie": false,
            "compDetect": 0.22727272727272727,
            "callBS": false,
            "playerTrialScore": 2,
            "oppTrialScore": 8,
            "playerTotalScore": 37,
            "oppTotalScore": 148,
            "waitTime": 2345.620048026013,
            "responseTime": 48047,
            "catchQuestion": "What number did your opponent report rolling?",
            "catchKey": -1,
            "catchResponse": -1,
            "catchResponseTime": -1,
            "trialTime": 46829
        },
        {
            "exptPart": "trial",
            "trialNumber": 32,
            "roleCurrent": "bullshitDetector",
            "diceSides": 10,
            "trueRoll": 1,
            "reportedRoll": 8,
            "compLie": 8,
            "compUnifLie": false,
            "compDetect": -1,
            "callBS": false,
            "playerTrialScore": 2,
            "oppTrialScore": 8,
            "playerTotalScore": 39,
            "oppTotalScore": 156,
            "waitTime": 6952.941763527473,
            "responseTime": 1370,
            "catchQuestion": "What number did your opponent report rolling?",
            "catchKey": -1,
            "catchResponse": -1,
            "catchResponseTime": -1,
            "trialTime": 10803
        },
        {
            "exptPart": "trial",
            "trialNumber": 33,
            "roleCurrent": "bullshitter",
            "diceSides": 10,
            "trueRoll": 10,
            "reportedRoll": 3,
            "compLie": -1,
            "compUnifLie": false,
            "compDetect": 0.3181818181818182,
            "callBS": false,
            "playerTrialScore": 3,
            "oppTrialScore": 7,
            "playerTotalScore": 42,
            "oppTotalScore": 163,
            "waitTime": 2327.0806647938675,
            "responseTime": 9623,
            "catchQuestion": "What number did your opponent report rolling?",
            "catchKey": -1,
            "catchResponse": -1,
            "catchResponseTime": -1,
            "trialTime": 12559
        },
        {
            "exptPart": "trial",
            "trialNumber": 34,
            "roleCurrent": "bullshitDetector",
            "diceSides": 10,
            "trueRoll": 8,
            "reportedRoll": 8,
            "compLie": 3,
            "compUnifLie": false,
            "compDetect": -1,
            "callBS": true,
            "playerTrialScore": -3,
            "oppTrialScore": 8,
            "playerTotalScore": 39,
            "oppTotalScore": 171,
            "waitTime": 5540.838385725843,
            "responseTime": 1450,
            "catchQuestion": "What number did your opponent report rolling?",
            "catchKey": -1,
            "catchResponse": -1,
            "catchResponseTime": -1,
            "trialTime": 9088
        },
        {
            "exptPart": "trial",
            "trialNumber": 35,
            "roleCurrent": "bullshitter",
            "diceSides": 10,
            "trueRoll": 1,
            "reportedRoll": 10,
            "compLie": -1,
            "compUnifLie": false,
            "compDetect": 0.9545454545454546,
            "callBS": true,
            "playerTrialScore": -5,
            "oppTrialScore": 5,
            "playerTotalScore": 34,
            "oppTotalScore": 176,
            "waitTime": 2883.710236462649,
            "responseTime": 163556,
            "catchQuestion": "What number did your opponent report rolling?",
            "catchKey": -1,
            "catchResponse": -1,
            "catchResponseTime": -1,
            "trialTime": 165425
        },
        {
            "exptPart": "trial",
            "trialNumber": 36,
            "roleCurrent": "bullshitDetector",
            "diceSides": 10,
            "trueRoll": 7,
            "reportedRoll": 7,
            "compLie": 7,
            "compUnifLie": false,
            "compDetect": -1,
            "callBS": true,
            "playerTrialScore": -2,
            "oppTrialScore": 7,
            "playerTotalScore": 32,
            "oppTotalScore": 183,
            "waitTime": 6923.8264687079645,
            "responseTime": 1346,
            "catchQuestion": "What number did your opponent report rolling?",
            "catchKey": 7,
            "catchResponse": 7,
            "catchResponseTime": 3998,
            "trialTime": 14247
        },
        {
            "exptPart": "trial",
            "trialNumber": 37,
            "roleCurrent": "bullshitter",
            "diceSides": 10,
            "trueRoll": 1,
            "reportedRoll": 2,
            "compLie": -1,
            "compUnifLie": false,
            "compDetect": 0.22727272727272727,
            "callBS": false,
            "playerTrialScore": 2,
            "oppTrialScore": 8,
            "playerTotalScore": 34,
            "oppTotalScore": 191,
            "waitTime": 2193.8162805143998,
            "responseTime": 16400,
            "catchQuestion": "What number did your opponent report rolling?",
            "catchKey": -1,
            "catchResponse": -1,
            "catchResponseTime": -1,
            "trialTime": 22224
        },
        {
            "exptPart": "trial",
            "trialNumber": 38,
            "roleCurrent": "bullshitDetector",
            "diceSides": 10,
            "trueRoll": 5,
            "reportedRoll": 9,
            "compLie": -1,
            "compUnifLie": true,
            "compDetect": -1,
            "callBS": true,
            "playerTrialScore": 5,
            "oppTrialScore": -5,
            "playerTotalScore": 39,
            "oppTotalScore": 186,
            "waitTime": 7216.214924326523,
            "responseTime": 1628,
            "catchQuestion": "What number did your opponent report rolling?",
            "catchKey": -1,
            "catchResponse": -1,
            "catchResponseTime": -1,
            "trialTime": 11673
        },
        {
            "exptPart": "trial",
            "trialNumber": 39,
            "roleCurrent": "bullshitter",
            "diceSides": 10,
            "trueRoll": 6,
            "reportedRoll": 6,
            "compLie": -1,
            "compUnifLie": false,
            "compDetect": 0.5909090909090909,
            "callBS": true,
            "playerTrialScore": 6,
            "oppTrialScore": -1,
            "playerTotalScore": 45,
            "oppTotalScore": 185,
            "waitTime": 3037.2071780512497,
            "responseTime": 12691,
            "catchQuestion": "What number did your opponent report rolling?",
            "catchKey": -1,
            "catchResponse": -1,
            "catchResponseTime": -1,
            "trialTime": 15661
        },
        {
            "exptPart": "trial",
            "trialNumber": 40,
            "roleCurrent": "bullshitDetector",
            "diceSides": 10,
            "trueRoll": 4,
            "reportedRoll": 5,
            "compLie": 5,
            "compUnifLie": false,
            "compDetect": -1,
            "callBS": false,
            "playerTrialScore": 5,
            "oppTrialScore": 5,
            "playerTotalScore": 50,
            "oppTotalScore": 190,
            "waitTime": 6237.539092650804,
            "responseTime": 19117,
            "catchQuestion": "What number did your opponent report rolling?",
            "catchKey": 5,
            "catchResponse": 4,
            "catchResponseTime": 4032,
            "trialTime": 40254
        },
        {
            "exptPart": "trial",
            "trialNumber": 41,
            "roleCurrent": "bullshitter",
            "diceSides": 10,
            "trueRoll": 7,
            "reportedRoll": 7,
            "compLie": -1,
            "compUnifLie": false,
            "compDetect": 0.6818181818181818,
            "callBS": true,
            "playerTrialScore": 7,
            "oppTrialScore": -2,
            "playerTotalScore": 57,
            "oppTotalScore": 188,
            "waitTime": 2609.520790783744,
            "responseTime": 191148,
            "catchQuestion": "What number did you roll?",
            "catchKey": 7,
            "catchResponse": 7,
            "catchResponseTime": 3318,
            "trialTime": 173018
        },
        {
            "exptPart": "trial",
            "trialNumber": 42,
            "roleCurrent": "bullshitDetector",
            "diceSides": 10,
            "trueRoll": 3,
            "reportedRoll": 7,
            "compLie": 7,
            "compUnifLie": false,
            "compDetect": -1,
            "callBS": true,
            "playerTrialScore": 5,
            "oppTrialScore": -5,
            "playerTotalScore": 62,
            "oppTotalScore": 183,
            "waitTime": 7367.317352914584,
            "responseTime": 1758,
            "catchQuestion": "What number did your opponent report rolling?",
            "catchKey": 7,
            "catchResponse": 7,
            "catchResponseTime": 2534,
            "trialTime": 13989
        },
        {
            "exptPart": "trial",
            "trialNumber": 43,
            "roleCurrent": "bullshitter",
            "diceSides": 10,
            "trueRoll": 2,
            "reportedRoll": 2,
            "compLie": -1,
            "compUnifLie": false,
            "compDetect": 0.22727272727272727,
            "callBS": false,
            "playerTrialScore": 2,
            "oppTrialScore": 8,
            "playerTotalScore": 64,
            "oppTotalScore": 191,
            "waitTime": 2122.6605626598907,
            "responseTime": 12242,
            "catchQuestion": "What number did your opponent report rolling?",
            "catchKey": -1,
            "catchResponse": -1,
            "catchResponseTime": -1,
            "trialTime": 27918
        },
        {
            "exptPart": "trial",
            "trialNumber": 44,
            "roleCurrent": "bullshitDetector",
            "diceSides": 10,
            "trueRoll": 8,
            "reportedRoll": 8,
            "compLie": 6,
            "compUnifLie": false,
            "compDetect": -1,
            "callBS": true,
            "playerTrialScore": -3,
            "oppTrialScore": 8,
            "playerTotalScore": 61,
            "oppTotalScore": 199,
            "waitTime": 5514.914865986148,
            "responseTime": 2688,
            "catchQuestion": "What number did your opponent report rolling?",
            "catchKey": -1,
            "catchResponse": -1,
            "catchResponseTime": -1,
            "trialTime": 10123
        },
        {
            "exptPart": "trial",
            "trialNumber": 45,
            "roleCurrent": "bullshitter",
            "diceSides": 10,
            "trueRoll": 7,
            "reportedRoll": 7,
            "compLie": -1,
            "compUnifLie": false,
            "compDetect": 0.6818181818181818,
            "callBS": true,
            "playerTrialScore": 7,
            "oppTrialScore": -2,
            "playerTotalScore": 68,
            "oppTotalScore": 197,
            "waitTime": 3141.4722525336924,
            "responseTime": 8253,
            "catchQuestion": "What number did your opponent report rolling?",
            "catchKey": -1,
            "catchResponse": -1,
            "catchResponseTime": -1,
            "trialTime": 9379
        },
        {
            "exptPart": "trial",
            "trialNumber": 46,
            "roleCurrent": "bullshitDetector",
            "diceSides": 10,
            "trueRoll": 4,
            "reportedRoll": 9,
            "compLie": -1,
            "compUnifLie": true,
            "compDetect": -1,
            "callBS": true,
            "playerTrialScore": 5,
            "oppTrialScore": -5,
            "playerTotalScore": 73,
            "oppTotalScore": 192,
            "waitTime": 6115.216335525183,
            "responseTime": 2113,
            "catchQuestion": "What number did your opponent report rolling?",
            "catchKey": -1,
            "catchResponse": -1,
            "catchResponseTime": -1,
            "trialTime": 15574
        },
        {
            "exptPart": "trial",
            "trialNumber": 47,
            "roleCurrent": "bullshitter",
            "diceSides": 10,
            "trueRoll": 8,
            "reportedRoll": 8,
            "compLie": -1,
            "compUnifLie": false,
            "compDetect": 0.7727272727272727,
            "callBS": true,
            "playerTrialScore": 8,
            "oppTrialScore": -3,
            "playerTotalScore": 81,
            "oppTotalScore": 189,
            "waitTime": 2410.9183685795224,
            "responseTime": 15612,
            "catchQuestion": "What number did your opponent report rolling?",
            "catchKey": -1,
            "catchResponse": -1,
            "catchResponseTime": -1,
            "trialTime": 15348
        },
        {
            "exptPart": "trial",
            "trialNumber": 48,
            "roleCurrent": "bullshitDetector",
            "diceSides": 10,
            "trueRoll": 1,
            "reportedRoll": 2,
            "compLie": 2,
            "compUnifLie": false,
            "compDetect": -1,
            "callBS": false,
            "playerTrialScore": 8,
            "oppTrialScore": 2,
            "playerTotalScore": 89,
            "oppTotalScore": 191,
            "waitTime": 6581.976273595502,
            "responseTime": 9484,
            "catchQuestion": "What number did your opponent report rolling?",
            "catchKey": -1,
            "catchResponse": -1,
            "catchResponseTime": -1,
            "trialTime": 19480
        },
        {
            "exptPart": "trial",
            "trialNumber": 49,
            "roleCurrent": "bullshitter",
            "diceSides": 10,
            "trueRoll": 8,
            "reportedRoll": 8,
            "compLie": -1,
            "compUnifLie": false,
            "compDetect": 0.7727272727272727,
            "callBS": true,
            "playerTrialScore": 8,
            "oppTrialScore": -3,
            "playerTotalScore": 97,
            "oppTotalScore": 188,
            "waitTime": 2589.3112224578626,
            "responseTime": 25085,
            "catchQuestion": "What number did you roll?",
            "catchKey": 8,
            "catchResponse": 8,
            "catchResponseTime": 4560,
            "trialTime": 31843
        },
        {
            "exptPart": "trial",
            "trialNumber": 50,
            "roleCurrent": "bullshitDetector",
            "diceSides": 10,
            "trueRoll": 2,
            "reportedRoll": 3,
            "compLie": 3,
            "compUnifLie": false,
            "compDetect": -1,
            "callBS": false,
            "playerTrialScore": 7,
            "oppTrialScore": 3,
            "playerTotalScore": 104,
            "oppTotalScore": 191,
            "waitTime": 5263.294609924069,
            "responseTime": 2940,
            "catchQuestion": "What number did you roll?",
            "catchKey": -1,
            "catchResponse": -1,
            "catchResponseTime": -1,
            "trialTime": 11328
        },
        {
            "exptPart": "trial",
            "trialNumber": 51,
            "roleCurrent": "bullshitter",
            "diceSides": 10,
            "trueRoll": 2,
            "reportedRoll": 6,
            "compLie": -1,
            "compUnifLie": false,
            "compDetect": 0.5909090909090909,
            "callBS": false,
            "playerTrialScore": 6,
            "oppTrialScore": 4,
            "playerTotalScore": 110,
            "oppTotalScore": 195,
            "waitTime": 2505.3131888430607,
            "responseTime": 12396,
            "catchQuestion": "What number did you roll?",
            "catchKey": -1,
            "catchResponse": -1,
            "catchResponseTime": -1,
            "trialTime": 12122
        },
        {
            "exptPart": "trial",
            "trialNumber": 52,
            "roleCurrent": "bullshitDetector",
            "diceSides": 10,
            "trueRoll": 8,
            "reportedRoll": 8,
            "compLie": 1,
            "compUnifLie": false,
            "compDetect": -1,
            "callBS": true,
            "playerTrialScore": -3,
            "oppTrialScore": 8,
            "playerTotalScore": 107,
            "oppTotalScore": 203,
            "waitTime": 6246.06475653884,
            "responseTime": 2983,
            "catchQuestion": "What number did your opponent report rolling?",
            "catchKey": 8,
            "catchResponse": 8,
            "catchResponseTime": 5919,
            "trialTime": 18531
        },
        {
            "exptPart": "trial",
            "trialNumber": 53,
            "roleCurrent": "bullshitter",
            "diceSides": 10,
            "trueRoll": 3,
            "reportedRoll": 4,
            "compLie": -1,
            "compUnifLie": false,
            "compDetect": 0.4090909090909091,
            "callBS": true,
            "playerTrialScore": -5,
            "oppTrialScore": 5,
            "playerTotalScore": 102,
            "oppTotalScore": 208,
            "waitTime": 2888.002575049469,
            "responseTime": 17320,
            "catchQuestion": "What number did your opponent report rolling?",
            "catchKey": -1,
            "catchResponse": -1,
            "catchResponseTime": -1,
            "trialTime": 12697
        },
        {
            "exptPart": "trial",
            "trialNumber": 54,
            "roleCurrent": "bullshitDetector",
            "diceSides": 10,
            "trueRoll": 5,
            "reportedRoll": 5,
            "compLie": 3,
            "compUnifLie": false,
            "compDetect": -1,
            "callBS": false,
            "playerTrialScore": 5,
            "oppTrialScore": 5,
            "playerTotalScore": 107,
            "oppTotalScore": 213,
            "waitTime": 6058.600999299706,
            "responseTime": 6481,
            "catchQuestion": "What number did your opponent report rolling?",
            "catchKey": -1,
            "catchResponse": -1,
            "catchResponseTime": -1,
            "trialTime": 14968
        },
        {
            "exptPart": "trial",
            "trialNumber": 55,
            "roleCurrent": "bullshitter",
            "diceSides": 10,
            "trueRoll": 1,
            "reportedRoll": 3,
            "compLie": -1,
            "compUnifLie": false,
            "compDetect": 0.3181818181818182,
            "callBS": true,
            "playerTrialScore": -5,
            "oppTrialScore": 5,
            "playerTotalScore": 102,
            "oppTotalScore": 218,
            "waitTime": 2985.0380906430864,
            "responseTime": 21320,
            "catchQuestion": "What number did your opponent report rolling?",
            "catchKey": -1,
            "catchResponse": -1,
            "catchResponseTime": -1,
            "trialTime": 19291
        },
        {
            "exptPart": "trial",
            "trialNumber": 56,
            "roleCurrent": "bullshitDetector",
            "diceSides": 10,
            "trueRoll": 1,
            "reportedRoll": 7,
            "compLie": -1,
            "compUnifLie": true,
            "compDetect": -1,
            "callBS": true,
            "playerTrialScore": 5,
            "oppTrialScore": -5,
            "playerTotalScore": 107,
            "oppTotalScore": 213,
            "waitTime": 5178.856751926722,
            "responseTime": 2795,
            "catchQuestion": "What number did your opponent report rolling?",
            "catchKey": -1,
            "catchResponse": -1,
            "catchResponseTime": -1,
            "trialTime": 51685
        },
        {
            "exptPart": "trial",
            "trialNumber": 57,
            "roleCurrent": "bullshitter",
            "diceSides": 10,
            "trueRoll": 1,
            "reportedRoll": 5,
            "compLie": -1,
            "compUnifLie": false,
            "compDetect": 0.5,
            "callBS": true,
            "playerTrialScore": -5,
            "oppTrialScore": 5,
            "playerTotalScore": 102,
            "oppTotalScore": 218,
            "waitTime": 2447.975838288823,
            "responseTime": 52757,
            "catchQuestion": "What number did your opponent report rolling?",
            "catchKey": -1,
            "catchResponse": -1,
            "catchResponseTime": -1,
            "trialTime": 10443
        },
        {
            "exptPart": "trial",
            "trialNumber": 58,
            "roleCurrent": "bullshitDetector",
            "diceSides": 10,
            "trueRoll": 6,
            "reportedRoll": 6,
            "compLie": 3,
            "compUnifLie": false,
            "compDetect": -1,
            "callBS": true,
            "playerTrialScore": -1,
            "oppTrialScore": 6,
            "playerTotalScore": 101,
            "oppTotalScore": 224,
            "waitTime": 5249.938970467033,
            "responseTime": 1375,
            "catchQuestion": "What number did your opponent report rolling?",
            "catchKey": -1,
            "catchResponse": -1,
            "catchResponseTime": -1,
            "trialTime": 8775
        },
        {
            "exptPart": "trial",
            "trialNumber": 59,
            "roleCurrent": "bullshitter",
            "diceSides": 10,
            "trueRoll": 0,
            "reportedRoll": 10,
            "compLie": -1,
            "compUnifLie": false,
            "compDetect": 0.9545454545454546,
            "callBS": true,
            "playerTrialScore": -5,
            "oppTrialScore": 5,
            "playerTotalScore": 96,
            "oppTotalScore": 229,
            "waitTime": 2438.350681917639,
            "responseTime": 69411,
            "catchQuestion": "What number did your opponent report rolling?",
            "catchKey": -1,
            "catchResponse": -1,
            "catchResponseTime": -1,
            "trialTime": 78742
        },
        {
            "exptPart": "trial",
            "trialNumber": 60,
            "roleCurrent": "bullshitDetector",
            "diceSides": 10,
            "trueRoll": 3,
            "reportedRoll": 3,
            "compLie": 2,
            "compUnifLie": false,
            "compDetect": -1,
            "callBS": true,
            "playerTrialScore": 2,
            "oppTrialScore": 3,
            "playerTotalScore": 98,
            "oppTotalScore": 232,
            "waitTime": 6913.007583299128,
            "responseTime": 3856,
            "catchQuestion": "What number did your opponent report rolling?",
            "catchKey": -1,
            "catchResponse": -1,
            "catchResponseTime": -1,
            "trialTime": 13850
        },
        {
            "exptPart": "trial",
            "trialNumber": 61,
            "roleCurrent": "bullshitter",
            "diceSides": 10,
            "trueRoll": 8,
            "reportedRoll": 8,
            "compLie": -1,
            "compUnifLie": false,
            "compDetect": 0.7727272727272727,
            "callBS": true,
            "playerTrialScore": 8,
            "oppTrialScore": -3,
            "playerTotalScore": 106,
            "oppTotalScore": 229,
            "waitTime": 2542.9725952706094,
            "responseTime": 13139,
            "catchQuestion": "What number did your opponent report rolling?",
            "catchKey": -1,
            "catchResponse": -1,
            "catchResponseTime": -1,
            "trialTime": 14095
        },
        {
            "exptPart": "trial",
            "trialNumber": 62,
            "roleCurrent": "bullshitDetector",
            "diceSides": 10,
            "trueRoll": 6,
            "reportedRoll": 7,
            "compLie": 7,
            "compUnifLie": false,
            "compDetect": -1,
            "callBS": true,
            "playerTrialScore": 5,
            "oppTrialScore": -5,
            "playerTotalScore": 111,
            "oppTotalScore": 224,
            "waitTime": 6016.895220357137,
            "responseTime": 2448,
            "catchQuestion": "What number did your opponent report rolling?",
            "catchKey": -1,
            "catchResponse": -1,
            "catchResponseTime": -1,
            "trialTime": 11339
        },
        {
            "exptPart": "trial",
            "trialNumber": 63,
            "roleCurrent": "bullshitter",
            "diceSides": 10,
            "trueRoll": 2,
            "reportedRoll": 3,
            "compLie": -1,
            "compUnifLie": false,
            "compDetect": 0.3181818181818182,
            "callBS": false,
            "playerTrialScore": 3,
            "oppTrialScore": 7,
            "playerTotalScore": 114,
            "oppTotalScore": 231,
            "waitTime": 2489.211401978148,
            "responseTime": 11440,
            "catchQuestion": "What number did your opponent report rolling?",
            "catchKey": -1,
            "catchResponse": -1,
            "catchResponseTime": -1,
            "trialTime": 11361
        },
        {
            "exptPart": "trial",
            "trialNumber": 64,
            "roleCurrent": "bullshitDetector",
            "diceSides": 10,
            "trueRoll": 2,
            "reportedRoll": 4,
            "compLie": -1,
            "compUnifLie": true,
            "compDetect": -1,
            "callBS": true,
            "playerTrialScore": 5,
            "oppTrialScore": -5,
            "playerTotalScore": 119,
            "oppTotalScore": 226,
            "waitTime": 5337.42660615812,
            "responseTime": 1375,
            "catchQuestion": "What number did your opponent report rolling?",
            "catchKey": -1,
            "catchResponse": -1,
            "catchResponseTime": -1,
            "trialTime": 9021
        },
        {
            "exptPart": "trial",
            "trialNumber": 65,
            "roleCurrent": "bullshitter",
            "diceSides": 10,
            "trueRoll": 6,
            "reportedRoll": 2,
            "compLie": -1,
            "compUnifLie": false,
            "compDetect": 0.22727272727272727,
            "callBS": false,
            "playerTrialScore": 2,
            "oppTrialScore": 8,
            "playerTotalScore": 121,
            "oppTotalScore": 234,
            "waitTime": 2177.555902546851,
            "responseTime": 267274,
            "catchQuestion": "What number did your opponent report rolling?",
            "catchKey": -1,
            "catchResponse": -1,
            "catchResponseTime": -1,
            "trialTime": 764120
        },
        {
            "exptPart": "trial",
            "trialNumber": 66,
            "roleCurrent": "bullshitDetector",
            "diceSides": 10,
            "trueRoll": 9,
            "reportedRoll": 9,
            "compLie": 9,
            "compUnifLie": false,
            "compDetect": -1,
            "callBS": true,
            "playerTrialScore": -4,
            "oppTrialScore": 9,
            "playerTotalScore": 117,
            "oppTotalScore": 243,
            "waitTime": 5686.865687024237,
            "responseTime": 16841,
            "catchQuestion": "What number did your opponent report rolling?",
            "catchKey": -1,
            "catchResponse": -1,
            "catchResponseTime": -1,
            "trialTime": 24949
        },
        {
            "exptPart": "trial",
            "trialNumber": 67,
            "roleCurrent": "bullshitter",
            "diceSides": 10,
            "trueRoll": 7,
            "reportedRoll": 7,
            "compLie": -1,
            "compUnifLie": false,
            "compDetect": 0.6818181818181818,
            "callBS": true,
            "playerTrialScore": 7,
            "oppTrialScore": -2,
            "playerTotalScore": 124,
            "oppTotalScore": 241,
            "waitTime": 2068.918621282649,
            "responseTime": 25265,
            "catchQuestion": "What number did your opponent report rolling?",
            "catchKey": -1,
            "catchResponse": -1,
            "catchResponseTime": -1,
            "trialTime": 10804
        },
        {
            "exptPart": "trial",
            "trialNumber": 68,
            "roleCurrent": "bullshitDetector",
            "diceSides": 10,
            "trueRoll": 9,
            "reportedRoll": 9,
            "compLie": 2,
            "compUnifLie": false,
            "compDetect": -1,
            "callBS": true,
            "playerTrialScore": -4,
            "oppTrialScore": 9,
            "playerTotalScore": 120,
            "oppTotalScore": 250,
            "waitTime": 5841.279848504903,
            "responseTime": 2346,
            "catchQuestion": "What number did your opponent report rolling?",
            "catchKey": -1,
            "catchResponse": -1,
            "catchResponseTime": -1,
            "trialTime": 12663
        },
        {
            "exptPart": "trial",
            "trialNumber": 69,
            "roleCurrent": "bullshitter",
            "diceSides": 10,
            "trueRoll": 6,
            "reportedRoll": 10,
            "compLie": -1,
            "compUnifLie": false,
            "compDetect": 0.9545454545454546,
            "callBS": true,
            "playerTrialScore": -5,
            "oppTrialScore": 5,
            "playerTotalScore": 115,
            "oppTotalScore": 255,
            "waitTime": 2474.0527322258713,
            "responseTime": 13921,
            "catchQuestion": "What number did your opponent report rolling?",
            "catchKey": -1,
            "catchResponse": -1,
            "catchResponseTime": -1,
            "trialTime": 11746
        },
        {
            "exptPart": "trial",
            "trialNumber": 70,
            "roleCurrent": "bullshitDetector",
            "diceSides": 10,
            "trueRoll": 0,
            "reportedRoll": 5,
            "compLie": 5,
            "compUnifLie": false,
            "compDetect": -1,
            "callBS": false,
            "playerTrialScore": 5,
            "oppTrialScore": 5,
            "playerTotalScore": 120,
            "oppTotalScore": 260,
            "waitTime": 7039.745737085703,
            "responseTime": 1266,
            "catchQuestion": "What number did your opponent report rolling?",
            "catchKey": 5,
            "catchResponse": 5,
            "catchResponseTime": 3104,
            "trialTime": 13499
        },
        {
            "exptPart": "trial",
            "trialNumber": 71,
            "roleCurrent": "bullshitter",
            "diceSides": 10,
            "trueRoll": 10,
            "reportedRoll": 10,
            "compLie": -1,
            "compUnifLie": false,
            "compDetect": 0.9545454545454546,
            "callBS": true,
            "playerTrialScore": 10,
            "oppTrialScore": -5,
            "playerTotalScore": 130,
            "oppTotalScore": 255,
            "waitTime": 2675.8136043212508,
            "responseTime": 15488,
            "catchQuestion": "What number did you roll?",
            "catchKey": 10,
            "catchResponse": 10,
            "catchResponseTime": 3184,
            "trialTime": 18228
        },
        {
            "exptPart": "trial",
            "trialNumber": 72,
            "roleCurrent": "bullshitDetector",
            "diceSides": 10,
            "trueRoll": 2,
            "reportedRoll": 2,
            "compLie": 1,
            "compUnifLie": false,
            "compDetect": -1,
            "callBS": true,
            "playerTrialScore": 3,
            "oppTrialScore": 2,
            "playerTotalScore": 133,
            "oppTotalScore": 257,
            "waitTime": 6397.2739094659955,
            "responseTime": 3436,
            "catchQuestion": "What number did you roll?",
            "catchKey": -1,
            "catchResponse": -1,
            "catchResponseTime": -1,
            "trialTime": 16857
        },
        {
            "exptPart": "trial",
            "trialNumber": 73,
            "roleCurrent": "bullshitter",
            "diceSides": 10,
            "trueRoll": 6,
            "reportedRoll": 6,
            "compLie": -1,
            "compUnifLie": false,
            "compDetect": 0.5909090909090909,
            "callBS": true,
            "playerTrialScore": 6,
            "oppTrialScore": -1,
            "playerTotalScore": 139,
            "oppTotalScore": 256,
            "waitTime": 2136.391887975614,
            "responseTime": 16172,
            "catchQuestion": "What number did you roll?",
            "catchKey": -1,
            "catchResponse": -1,
            "catchResponseTime": -1,
            "trialTime": 13202
        },
        {
            "exptPart": "trial",
            "trialNumber": 74,
            "roleCurrent": "bullshitDetector",
            "diceSides": 10,
            "trueRoll": 1,
            "reportedRoll": 4,
            "compLie": 4,
            "compUnifLie": false,
            "compDetect": -1,
            "callBS": false,
            "playerTrialScore": 6,
            "oppTrialScore": 4,
            "playerTotalScore": 145,
            "oppTotalScore": 260,
            "waitTime": 6142.935486379478,
            "responseTime": 8021,
            "catchQuestion": "What number did you roll?",
            "catchKey": -1,
            "catchResponse": -1,
            "catchResponseTime": -1,
            "trialTime": 19969
        },
        {
            "exptPart": "trial",
            "trialNumber": 75,
            "roleCurrent": "bullshitter",
            "diceSides": 10,
            "trueRoll": 8,
            "reportedRoll": 8,
            "compLie": -1,
            "compUnifLie": false,
            "compDetect": 0.7727272727272727,
            "callBS": false,
            "playerTrialScore": 8,
            "oppTrialScore": 2,
            "playerTotalScore": 153,
            "oppTotalScore": 262,
            "waitTime": 2354.153807975872,
            "responseTime": 29679,
            "catchQuestion": "What number did you roll?",
            "catchKey": 8,
            "catchResponse": 8,
            "catchResponseTime": 3633,
            "trialTime": 25099
        },
        {
            "exptPart": "trial",
            "trialNumber": 76,
            "roleCurrent": "bullshitDetector",
            "diceSides": 10,
            "trueRoll": 6,
            "reportedRoll": 7,
            "compLie": 7,
            "compUnifLie": false,
            "compDetect": -1,
            "callBS": false,
            "playerTrialScore": 3,
            "oppTrialScore": 7,
            "playerTotalScore": 156,
            "oppTotalScore": 269,
            "waitTime": 6006.219126165867,
            "responseTime": 1477,
            "catchQuestion": "What number did your opponent report rolling?",
            "catchKey": 7,
            "catchResponse": 7,
            "catchResponseTime": 4203,
            "trialTime": 14300
        },
        {
            "exptPart": "trial",
            "trialNumber": 77,
            "roleCurrent": "bullshitter",
            "diceSides": 10,
            "trueRoll": 1,
            "reportedRoll": 10,
            "compLie": -1,
            "compUnifLie": false,
            "compDetect": 0.9545454545454546,
            "callBS": true,
            "playerTrialScore": -5,
            "oppTrialScore": 5,
            "playerTotalScore": 151,
            "oppTotalScore": 274,
            "waitTime": 2392.46891577277,
            "responseTime": 14740,
            "catchQuestion": "What number did your opponent report rolling?",
            "catchKey": -1,
            "catchResponse": -1,
            "catchResponseTime": -1,
            "trialTime": 11751
        },
        {
            "exptPart": "trial",
            "trialNumber": 78,
            "roleCurrent": "bullshitDetector",
            "diceSides": 10,
            "trueRoll": 0,
            "reportedRoll": 0,
            "compLie": 0,
            "compUnifLie": false,
            "compDetect": -1,
            "callBS": false,
            "playerTrialScore": 10,
            "oppTrialScore": 0,
            "playerTotalScore": 161,
            "oppTotalScore": 274,
            "waitTime": 6669.302051442151,
            "responseTime": 3134,
            "catchQuestion": "What number did your opponent report rolling?",
            "catchKey": 0,
            "catchResponse": 1,
            "catchResponseTime": 5158,
            "trialTime": 21133
        },
        {
            "exptPart": "trial",
            "trialNumber": 79,
            "roleCurrent": "bullshitter",
            "diceSides": 10,
            "trueRoll": 8,
            "reportedRoll": 8,
            "compLie": -1,
            "compUnifLie": false,
            "compDetect": 0.7727272727272727,
            "callBS": false,
            "playerTrialScore": 8,
            "oppTrialScore": 2,
            "playerTotalScore": 169,
            "oppTotalScore": 276,
            "waitTime": 2279.475928157105,
            "responseTime": 19926,
            "catchQuestion": "What number did your opponent report rolling?",
            "catchKey": -1,
            "catchResponse": -1,
            "catchResponseTime": -1,
            "trialTime": 13433
        },
        {
            "exptPart": "trial",
            "trialNumber": 80,
            "roleCurrent": "bullshitDetector",
            "diceSides": 10,
            "trueRoll": 9,
            "reportedRoll": 2,
            "compLie": -1,
            "compUnifLie": true,
            "compDetect": -1,
            "callBS": false,
            "playerTrialScore": 8,
            "oppTrialScore": 2,
            "playerTotalScore": 177,
            "oppTotalScore": 278,
            "waitTime": 6980.812846010542,
            "responseTime": 1758,
            "catchQuestion": "What number did your opponent report rolling?",
            "catchKey": -1,
            "catchResponse": -1,
            "catchResponseTime": -1,
            "trialTime": 11131
        },
        {
            "exptPart": "trial",
            "trialNumber": 81,
            "roleCurrent": "bullshitter",
            "diceSides": 10,
            "trueRoll": 1,
            "reportedRoll": 9,
            "compLie": -1,
            "compUnifLie": false,
            "compDetect": 0.8636363636363636,
            "callBS": true,
            "playerTrialScore": -5,
            "oppTrialScore": 5,
            "playerTotalScore": 172,
            "oppTotalScore": 283,
            "waitTime": 2579.1419325274123,
            "responseTime": 13774,
            "catchQuestion": "What number did you roll?",
            "catchKey": 1,
            "catchResponse": 1,
            "catchResponseTime": 3717,
            "trialTime": 20384
        },
        {
            "exptPart": "trial",
            "trialNumber": 82,
            "roleCurrent": "bullshitDetector",
            "diceSides": 10,
            "trueRoll": 8,
            "reportedRoll": 8,
            "compLie": 5,
            "compUnifLie": false,
            "compDetect": -1,
            "callBS": true,
            "playerTrialScore": -3,
            "oppTrialScore": 8,
            "playerTotalScore": 169,
            "oppTotalScore": 291,
            "waitTime": 6454.305895264289,
            "responseTime": 3793,
            "catchQuestion": "What number did you roll?",
            "catchKey": -1,
            "catchResponse": -1,
            "catchResponseTime": -1,
            "trialTime": 17046
        },
        {
            "exptPart": "trial",
            "trialNumber": 83,
            "roleCurrent": "bullshitter",
            "diceSides": 10,
            "trueRoll": 0,
            "reportedRoll": 10,
            "compLie": -1,
            "compUnifLie": false,
            "compDetect": 0.9545454545454546,
            "callBS": true,
            "playerTrialScore": -5,
            "oppTrialScore": 5,
            "playerTotalScore": 164,
            "oppTotalScore": 296,
            "waitTime": 2363.4427632845436,
            "responseTime": 19973,
            "catchQuestion": "What number did you roll?",
            "catchKey": -1,
            "catchResponse": -1,
            "catchResponseTime": -1,
            "trialTime": 15389
        },
        {
            "exptPart": "trial",
            "trialNumber": 84,
            "roleCurrent": "bullshitDetector",
            "diceSides": 10,
            "trueRoll": 0,
            "reportedRoll": 10,
            "compLie": 10,
            "compUnifLie": false,
            "compDetect": -1,
            "callBS": true,
            "playerTrialScore": 5,
            "oppTrialScore": -5,
            "playerTotalScore": 169,
            "oppTotalScore": 291,
            "waitTime": 6033.702088154945,
            "responseTime": 2195,
            "catchQuestion": "What number did you roll?",
            "catchKey": -1,
            "catchResponse": -1,
            "catchResponseTime": -1,
            "trialTime": 10652
        },
        {
            "exptPart": "trial",
            "trialNumber": 85,
            "roleCurrent": "bullshitter",
            "diceSides": 10,
            "trueRoll": 3,
            "reportedRoll": 4,
            "compLie": -1,
            "compUnifLie": false,
            "compDetect": 0.4090909090909091,
            "callBS": true,
            "playerTrialScore": -5,
            "oppTrialScore": 5,
            "playerTotalScore": 164,
            "oppTotalScore": 296,
            "waitTime": 2202.224995468524,
            "responseTime": 11146,
            "catchQuestion": "What number did you roll?",
            "catchKey": -1,
            "catchResponse": -1,
            "catchResponseTime": -1,
            "trialTime": 12722
        },
        {
            "exptPart": "trial",
            "trialNumber": 86,
            "roleCurrent": "bullshitDetector",
            "diceSides": 10,
            "trueRoll": 10,
            "reportedRoll": 1,
            "compLie": -1,
            "compUnifLie": true,
            "compDetect": -1,
            "callBS": false,
            "playerTrialScore": 9,
            "oppTrialScore": 1,
            "playerTotalScore": 173,
            "oppTotalScore": 297,
            "waitTime": 6322.492977759941,
            "responseTime": 2317,
            "catchQuestion": "What number did you roll?",
            "catchKey": -1,
            "catchResponse": -1,
            "catchResponseTime": -1,
            "trialTime": 28745
        },
        {
            "exptPart": "trial",
            "trialNumber": 87,
            "roleCurrent": "bullshitter",
            "diceSides": 10,
            "trueRoll": 1,
            "reportedRoll": 6,
            "compLie": -1,
            "compUnifLie": false,
            "compDetect": 0.5909090909090909,
            "callBS": true,
            "playerTrialScore": -5,
            "oppTrialScore": 5,
            "playerTotalScore": 168,
            "oppTotalScore": 302,
            "waitTime": 3071.095362063644,
            "responseTime": 46554,
            "catchQuestion": "What number did you roll?",
            "catchKey": -1,
            "catchResponse": -1,
            "catchResponseTime": -1,
            "trialTime": 31178
        },
        {
            "exptPart": "trial",
            "trialNumber": 88,
            "roleCurrent": "bullshitDetector",
            "diceSides": 10,
            "trueRoll": 9,
            "reportedRoll": 10,
            "compLie": -1,
            "compUnifLie": true,
            "compDetect": -1,
            "callBS": true,
            "playerTrialScore": 5,
            "oppTrialScore": -5,
            "playerTotalScore": 173,
            "oppTotalScore": 297,
            "waitTime": 6199.307823013942,
            "responseTime": 1844,
            "catchQuestion": "What number did you roll?",
            "catchKey": -1,
            "catchResponse": -1,
            "catchResponseTime": -1,
            "trialTime": 18778
        },
        {
            "exptPart": "trial",
            "trialNumber": 89,
            "roleCurrent": "bullshitter",
            "diceSides": 10,
            "trueRoll": 9,
            "reportedRoll": 9,
            "compLie": -1,
            "compUnifLie": false,
            "compDetect": 0.8636363636363636,
            "callBS": true,
            "playerTrialScore": 9,
            "oppTrialScore": -4,
            "playerTotalScore": 182,
            "oppTotalScore": 293,
            "waitTime": 2183.8732981252797,
            "responseTime": 21835,
            "catchQuestion": "What number did you roll?",
            "catchKey": -1,
            "catchResponse": -1,
            "catchResponseTime": -1,
            "trialTime": 15925
        },
        {
            "exptPart": "trial",
            "trialNumber": 90,
            "roleCurrent": "bullshitDetector",
            "diceSides": 10,
            "trueRoll": 5,
            "reportedRoll": 9,
            "compLie": -1,
            "compUnifLie": true,
            "compDetect": -1,
            "callBS": true,
            "playerTrialScore": 5,
            "oppTrialScore": -5,
            "playerTotalScore": 187,
            "oppTotalScore": 288,
            "waitTime": 5293.051928612306,
            "responseTime": 4427,
            "catchQuestion": "What number did you roll?",
            "catchKey": -1,
            "catchResponse": -1,
            "catchResponseTime": -1,
            "trialTime": 11958
        },
        {
            "exptPart": "trial",
            "trialNumber": 91,
            "roleCurrent": "bullshitter",
            "diceSides": 10,
            "trueRoll": 8,
            "reportedRoll": 8,
            "compLie": -1,
            "compUnifLie": false,
            "compDetect": 0.7727272727272727,
            "callBS": true,
            "playerTrialScore": 8,
            "oppTrialScore": -3,
            "playerTotalScore": 195,
            "oppTotalScore": 285,
            "waitTime": 3176.3152651448027,
            "responseTime": 16047,
            "catchQuestion": "What number did you roll?",
            "catchKey": -1,
            "catchResponse": -1,
            "catchResponseTime": -1,
            "trialTime": 17864
        },
        {
            "exptPart": "trial",
            "trialNumber": 92,
            "roleCurrent": "bullshitDetector",
            "diceSides": 10,
            "trueRoll": 9,
            "reportedRoll": 9,
            "compLie": 2,
            "compUnifLie": false,
            "compDetect": -1,
            "callBS": true,
            "playerTrialScore": -4,
            "oppTrialScore": 9,
            "playerTotalScore": 191,
            "oppTotalScore": 294,
            "waitTime": 6630.696763648599,
            "responseTime": 13245,
            "catchQuestion": "What number did you roll?",
            "catchKey": -1,
            "catchResponse": -1,
            "catchResponseTime": -1,
            "trialTime": 22367
        },
        {
            "exptPart": "trial",
            "trialNumber": 93,
            "roleCurrent": "bullshitter",
            "diceSides": 10,
            "trueRoll": 10,
            "reportedRoll": 10,
            "compLie": -1,
            "compUnifLie": false,
            "compDetect": 0.9545454545454546,
            "callBS": true,
            "playerTrialScore": 10,
            "oppTrialScore": -5,
            "playerTotalScore": 201,
            "oppTotalScore": 289,
            "waitTime": 2787.2688597286406,
            "responseTime": 25007,
            "catchQuestion": "What number did you roll?",
            "catchKey": -1,
            "catchResponse": -1,
            "catchResponseTime": -1,
            "trialTime": 14183
        },
        {
            "exptPart": "trial",
            "trialNumber": 94,
            "roleCurrent": "bullshitDetector",
            "diceSides": 10,
            "trueRoll": 9,
            "reportedRoll": 9,
            "compLie": 8,
            "compUnifLie": false,
            "compDetect": -1,
            "callBS": true,
            "playerTrialScore": -4,
            "oppTrialScore": 9,
            "playerTotalScore": 197,
            "oppTotalScore": 298,
            "waitTime": 6548.993280442181,
            "responseTime": 18612,
            "catchQuestion": "What number did you roll?",
            "catchKey": -1,
            "catchResponse": -1,
            "catchResponseTime": -1,
            "trialTime": 43836
        },
        {
            "exptPart": "trial",
            "trialNumber": 95,
            "roleCurrent": "bullshitter",
            "diceSides": 10,
            "trueRoll": 10,
            "reportedRoll": 10,
            "compLie": -1,
            "compUnifLie": false,
            "compDetect": 0.9545454545454546,
            "callBS": true,
            "playerTrialScore": 10,
            "oppTrialScore": -5,
            "playerTotalScore": 207,
            "oppTotalScore": 293,
            "waitTime": 2987.8532474889453,
            "responseTime": 84377,
            "catchQuestion": "What number did you roll?",
            "catchKey": -1,
            "catchResponse": -1,
            "catchResponseTime": -1,
            "trialTime": 51374
        },
        {
            "exptPart": "trial",
            "trialNumber": 96,
            "roleCurrent": "bullshitDetector",
            "diceSides": 10,
            "trueRoll": 2,
            "reportedRoll": 2,
            "compLie": 1,
            "compUnifLie": false,
            "compDetect": -1,
            "callBS": false,
            "playerTrialScore": 8,
            "oppTrialScore": 2,
            "playerTotalScore": 215,
            "oppTotalScore": 295,
            "waitTime": 6085.516308492281,
            "responseTime": 2580,
            "catchQuestion": "What number did you roll?",
            "catchKey": -1,
            "catchResponse": -1,
            "catchResponseTime": -1,
            "trialTime": 10851
        },
        {
            "exptPart": "trial",
            "trialNumber": 97,
            "roleCurrent": "bullshitter",
            "diceSides": 10,
            "trueRoll": 9,
            "reportedRoll": 9,
            "compLie": -1,
            "compUnifLie": false,
            "compDetect": 0.8636363636363636,
            "callBS": true,
            "playerTrialScore": 9,
            "oppTrialScore": -4,
            "playerTotalScore": 224,
            "oppTotalScore": 291,
            "waitTime": 2713.9677184075554,
            "responseTime": 11358,
            "catchQuestion": "What number did you roll?",
            "catchKey": -1,
            "catchResponse": -1,
            "catchResponseTime": -1,
            "trialTime": 12764
        },
        {
            "exptPart": "trial",
            "trialNumber": 98,
            "roleCurrent": "bullshitDetector",
            "diceSides": 10,
            "trueRoll": 0,
            "reportedRoll": 8,
            "compLie": 8,
            "compUnifLie": false,
            "compDetect": -1,
            "callBS": true,
            "playerTrialScore": 5,
            "oppTrialScore": -5,
            "playerTotalScore": 229,
            "oppTotalScore": 286,
            "waitTime": 6786.711015110839,
            "responseTime": 3798,
            "catchQuestion": "What number did you roll?",
            "catchKey": -1,
            "catchResponse": -1,
            "catchResponseTime": -1,
            "trialTime": 16910
        },
        {
            "exptPart": "trial",
            "trialNumber": 99,
            "roleCurrent": "bullshitter",
            "diceSides": 10,
            "trueRoll": 8,
            "reportedRoll": 8,
            "compLie": -1,
            "compUnifLie": false,
            "compDetect": 0.7727272727272727,
            "callBS": true,
            "playerTrialScore": 8,
            "oppTrialScore": -3,
            "playerTotalScore": 237,
            "oppTotalScore": 283,
            "waitTime": 2247.1472432314167,
            "responseTime": 17347,
            "catchQuestion": "What number did you roll?",
            "catchKey": -1,
            "catchResponse": -1,
            "catchResponseTime": -1,
            "trialTime": 13300
        },
        {
            "exptPart": "trial",
            "trialNumber": 100,
            "roleCurrent": "bullshitDetector",
            "diceSides": 10,
            "trueRoll": 6,
            "reportedRoll": 6,
            "compLie": 3,
            "compUnifLie": false,
            "compDetect": -1,
            "callBS": false,
            "playerTrialScore": 4,
            "oppTrialScore": 6,
            "playerTotalScore": 241,
            "oppTotalScore": 289,
            "waitTime": 5572.771480161906,
            "responseTime": 2692,
            "catchQuestion": "What number did you roll?",
            "catchKey": -1,
            "catchResponse": -1,
            "catchResponseTime": -1,
            "trialTime": 10353
        }
    ]
}