{
    "client": {
        "type": "sona",
        "experiment_id": 1505,
        "credit_token": "b20092f9d3b34a378ee654bcc50710ea",
        "survey_code": "35771",
        "sid": "sona-35771",
        "window": {
            "width": 1280,
            "height": 721
        },
        "screen": {
            "width": 1280,
            "height": 800
        },
        "userAgent": "Mozilla\/5.0 (Macintosh; Intel Mac OS X 10_15_2) AppleWebKit\/537.36 (KHTML, like Gecko) Chrome\/85.0.4183.83 Safari\/537.36",
        "score": 0,
        "bonus": 0
    },
    "expt": {
        "saveURL": "submit.simple.php",
        "trials": 100,
        "practiceTrials": 4,
        "diceSides": 10,
        "roles": [
            "bullshitter",
            "bullshitDetector"
        ],
        "roleFirst": "bullshitDetector",
        "allTrialProbs": [
            0.2,
            0.5,
            0.8
        ],
        "occlude": "human",
        "catchTrials": [
            16,
            45,
            63,
            38,
            74,
            98,
            3,
            90,
            71,
            12,
            78,
            34,
            51,
            95,
            32
        ],
        "stat": {
            "playerTotalScore": 379,
            "oppTotalScore": 451,
            "truth": 41,
            "truth_noBS": 22,
            "truth_BS": 19,
            "lie": 9,
            "lie_noBS": 4,
            "lie_BS": 5,
            "noBS": 47,
            "noBS_truth": 21,
            "noBS_lie": 26,
            "BS": 3,
            "BS_truth": 1,
            "BS_lie": 2
        },
        "sona": {
            "experiment_id": 1505,
            "credit_token": "b20092f9d3b34a378ee654bcc50710ea"
        },
        "debug": false
    },
    "trials": [
        {
            "exptPart": "practice",
            "trialNumber": 1,
            "roleCurrent": "bullshitter",
            "diceSides": 10,
            "trueRoll": 10,
            "reportedRoll": 10,
            "compLie": -1,
            "compUnifLie": false,
            "compDetect": 0.9545454545454546,
            "callBS": true,
            "playerTrialScore": 10,
            "oppTrialScore": -5,
            "playerTotalScore": 10,
            "oppTotalScore": -5,
            "waitTime": 2707.831158001035,
            "responseTime": 1598941381700,
            "catchQuestion": "",
            "catchKey": -1,
            "catchResponse": -1,
            "catchResponseTime": -1,
            "trialTime": 28721
        },
        {
            "exptPart": "practice",
            "trialNumber": 2,
            "roleCurrent": "bullshitDetector",
            "diceSides": 10,
            "trueRoll": 4,
            "reportedRoll": 4,
            "compLie": 1,
            "compUnifLie": false,
            "compDetect": -1,
            "callBS": false,
            "playerTrialScore": 6,
            "oppTrialScore": 4,
            "playerTotalScore": 16,
            "oppTotalScore": -1,
            "waitTime": 5439.2532806108975,
            "responseTime": 13723,
            "catchQuestion": "",
            "catchKey": -1,
            "catchResponse": -1,
            "catchResponseTime": -1,
            "trialTime": 30474
        },
        {
            "exptPart": "practice",
            "trialNumber": 3,
            "roleCurrent": "bullshitter",
            "diceSides": 10,
            "trueRoll": 5,
            "reportedRoll": 6,
            "compLie": -1,
            "compUnifLie": false,
            "compDetect": 0.5909090909090909,
            "callBS": false,
            "playerTrialScore": 6,
            "oppTrialScore": 4,
            "playerTotalScore": 22,
            "oppTotalScore": 3,
            "waitTime": 2435.178976109083,
            "responseTime": 31086,
            "catchQuestion": "What number did you roll?",
            "catchKey": 5,
            "catchResponse": 5,
            "catchResponseTime": 5524,
            "trialTime": 31037
        },
        {
            "exptPart": "practice",
            "trialNumber": 4,
            "roleCurrent": "bullshitDetector",
            "diceSides": 10,
            "trueRoll": 1,
            "reportedRoll": 1,
            "compLie": 0,
            "compUnifLie": false,
            "compDetect": -1,
            "callBS": false,
            "playerTrialScore": 9,
            "oppTrialScore": 1,
            "playerTotalScore": 31,
            "oppTotalScore": 4,
            "waitTime": 6713.733541765207,
            "responseTime": 7021,
            "catchQuestion": "What number did your opponent report rolling?",
            "catchKey": 1,
            "catchResponse": 1,
            "catchResponseTime": 5111,
            "trialTime": 30063
        },
        {
            "exptPart": "trial",
            "trialNumber": 1,
            "roleCurrent": "bullshitDetector",
            "diceSides": 10,
            "trueRoll": 1,
            "reportedRoll": 3,
            "compLie": 3,
            "compUnifLie": false,
            "compDetect": -1,
            "callBS": false,
            "playerTrialScore": 7,
            "oppTrialScore": 3,
            "playerTotalScore": 7,
            "oppTotalScore": 3,
            "waitTime": 6453.397025805234,
            "responseTime": 3655,
            "catchQuestion": "What number did your opponent report rolling?",
            "catchKey": -1,
            "catchResponse": -1,
            "catchResponseTime": -1,
            "trialTime": 14194
        },
        {
            "exptPart": "trial",
            "trialNumber": 2,
            "roleCurrent": "bullshitter",
            "diceSides": 10,
            "trueRoll": 5,
            "reportedRoll": 5,
            "compLie": -1,
            "compUnifLie": false,
            "compDetect": 0.5,
            "callBS": false,
            "playerTrialScore": 5,
            "oppTrialScore": 5,
            "playerTotalScore": 12,
            "oppTotalScore": 8,
            "waitTime": 2263.274671616303,
            "responseTime": 15005,
            "catchQuestion": "What number did your opponent report rolling?",
            "catchKey": -1,
            "catchResponse": -1,
            "catchResponseTime": -1,
            "trialTime": 12402
        },
        {
            "exptPart": "trial",
            "trialNumber": 3,
            "roleCurrent": "bullshitDetector",
            "diceSides": 10,
            "trueRoll": 10,
            "reportedRoll": 5,
            "compLie": -1,
            "compUnifLie": true,
            "compDetect": -1,
            "callBS": true,
            "playerTrialScore": 5,
            "oppTrialScore": -5,
            "playerTotalScore": 17,
            "oppTotalScore": 3,
            "waitTime": 7069.102627869392,
            "responseTime": 4238,
            "catchQuestion": "What number did your opponent report rolling?",
            "catchKey": -1,
            "catchResponse": -1,
            "catchResponseTime": -1,
            "trialTime": 14539
        },
        {
            "exptPart": "trial",
            "trialNumber": 4,
            "roleCurrent": "bullshitter",
            "diceSides": 10,
            "trueRoll": 0,
            "reportedRoll": 10,
            "compLie": -1,
            "compUnifLie": false,
            "compDetect": 0.9545454545454546,
            "callBS": true,
            "playerTrialScore": -5,
            "oppTrialScore": 5,
            "playerTotalScore": 12,
            "oppTotalScore": 8,
            "waitTime": 2948.1561741940513,
            "responseTime": 24929,
            "catchQuestion": "What number did you roll?",
            "catchKey": 0,
            "catchResponse": 6,
            "catchResponseTime": 15133,
            "trialTime": 40777
        },
        {
            "exptPart": "trial",
            "trialNumber": 5,
            "roleCurrent": "bullshitDetector",
            "diceSides": 10,
            "trueRoll": 8,
            "reportedRoll": 9,
            "compLie": 9,
            "compUnifLie": false,
            "compDetect": -1,
            "callBS": false,
            "playerTrialScore": 1,
            "oppTrialScore": 9,
            "playerTotalScore": 13,
            "oppTotalScore": 17,
            "waitTime": 5181.2063077295725,
            "responseTime": 3537,
            "catchQuestion": "What number did you roll?",
            "catchKey": -1,
            "catchResponse": -1,
            "catchResponseTime": -1,
            "trialTime": 13640
        },
        {
            "exptPart": "trial",
            "trialNumber": 6,
            "roleCurrent": "bullshitter",
            "diceSides": 10,
            "trueRoll": 9,
            "reportedRoll": 9,
            "compLie": -1,
            "compUnifLie": false,
            "compDetect": 0.8636363636363636,
            "callBS": true,
            "playerTrialScore": 9,
            "oppTrialScore": -4,
            "playerTotalScore": 22,
            "oppTotalScore": 13,
            "waitTime": 2285.5386456334777,
            "responseTime": 15584,
            "catchQuestion": "What number did you roll?",
            "catchKey": -1,
            "catchResponse": -1,
            "catchResponseTime": -1,
            "trialTime": 11895
        },
        {
            "exptPart": "trial",
            "trialNumber": 7,
            "roleCurrent": "bullshitDetector",
            "diceSides": 10,
            "trueRoll": 6,
            "reportedRoll": 7,
            "compLie": 7,
            "compUnifLie": false,
            "compDetect": -1,
            "callBS": false,
            "playerTrialScore": 3,
            "oppTrialScore": 7,
            "playerTotalScore": 25,
            "oppTotalScore": 20,
            "waitTime": 6532.018975629437,
            "responseTime": 2094,
            "catchQuestion": "What number did you roll?",
            "catchKey": -1,
            "catchResponse": -1,
            "catchResponseTime": -1,
            "trialTime": 11239
        },
        {
            "exptPart": "trial",
            "trialNumber": 8,
            "roleCurrent": "bullshitter",
            "diceSides": 10,
            "trueRoll": 8,
            "reportedRoll": 8,
            "compLie": -1,
            "compUnifLie": false,
            "compDetect": 0.7727272727272727,
            "callBS": true,
            "playerTrialScore": 8,
            "oppTrialScore": -3,
            "playerTotalScore": 33,
            "oppTotalScore": 17,
            "waitTime": 2693.0978295176583,
            "responseTime": 12750,
            "catchQuestion": "What number did you roll?",
            "catchKey": -1,
            "catchResponse": -1,
            "catchResponseTime": -1,
            "trialTime": 12560
        },
        {
            "exptPart": "trial",
            "trialNumber": 9,
            "roleCurrent": "bullshitDetector",
            "diceSides": 10,
            "trueRoll": 0,
            "reportedRoll": 2,
            "compLie": 2,
            "compUnifLie": false,
            "compDetect": -1,
            "callBS": false,
            "playerTrialScore": 8,
            "oppTrialScore": 2,
            "playerTotalScore": 41,
            "oppTotalScore": 19,
            "waitTime": 7150.904372401894,
            "responseTime": 6798,
            "catchQuestion": "What number did you roll?",
            "catchKey": -1,
            "catchResponse": -1,
            "catchResponseTime": -1,
            "trialTime": 17341
        },
        {
            "exptPart": "trial",
            "trialNumber": 10,
            "roleCurrent": "bullshitter",
            "diceSides": 10,
            "trueRoll": 2,
            "reportedRoll": 2,
            "compLie": -1,
            "compUnifLie": false,
            "compDetect": 0.22727272727272727,
            "callBS": false,
            "playerTrialScore": 2,
            "oppTrialScore": 8,
            "playerTotalScore": 43,
            "oppTotalScore": 27,
            "waitTime": 2546.8645484626168,
            "responseTime": 19002,
            "catchQuestion": "What number did you roll?",
            "catchKey": -1,
            "catchResponse": -1,
            "catchResponseTime": -1,
            "trialTime": 14862
        },
        {
            "exptPart": "trial",
            "trialNumber": 11,
            "roleCurrent": "bullshitDetector",
            "diceSides": 10,
            "trueRoll": 9,
            "reportedRoll": 9,
            "compLie": 0,
            "compUnifLie": false,
            "compDetect": -1,
            "callBS": false,
            "playerTrialScore": 1,
            "oppTrialScore": 9,
            "playerTotalScore": 44,
            "oppTotalScore": 36,
            "waitTime": 6405.376105529258,
            "responseTime": 1515,
            "catchQuestion": "What number did you roll?",
            "catchKey": -1,
            "catchResponse": -1,
            "catchResponseTime": -1,
            "trialTime": 10988
        },
        {
            "exptPart": "trial",
            "trialNumber": 12,
            "roleCurrent": "bullshitter",
            "diceSides": 10,
            "trueRoll": 5,
            "reportedRoll": 5,
            "compLie": -1,
            "compUnifLie": false,
            "compDetect": 0.5,
            "callBS": false,
            "playerTrialScore": 5,
            "oppTrialScore": 5,
            "playerTotalScore": 49,
            "oppTotalScore": 41,
            "waitTime": 2440.307847577682,
            "responseTime": 13152,
            "catchQuestion": "What number did you roll?",
            "catchKey": -1,
            "catchResponse": -1,
            "catchResponseTime": -1,
            "trialTime": 16076
        },
        {
            "exptPart": "trial",
            "trialNumber": 13,
            "roleCurrent": "bullshitDetector",
            "diceSides": 10,
            "trueRoll": 1,
            "reportedRoll": 2,
            "compLie": 2,
            "compUnifLie": false,
            "compDetect": -1,
            "callBS": false,
            "playerTrialScore": 8,
            "oppTrialScore": 2,
            "playerTotalScore": 57,
            "oppTotalScore": 43,
            "waitTime": 5397.433347236953,
            "responseTime": 1338,
            "catchQuestion": "What number did your opponent report rolling?",
            "catchKey": 2,
            "catchResponse": 5,
            "catchResponseTime": 3737,
            "trialTime": 15998
        },
        {
            "exptPart": "trial",
            "trialNumber": 14,
            "roleCurrent": "bullshitter",
            "diceSides": 10,
            "trueRoll": 9,
            "reportedRoll": 9,
            "compLie": -1,
            "compUnifLie": false,
            "compDetect": 0.8636363636363636,
            "callBS": true,
            "playerTrialScore": 9,
            "oppTrialScore": -4,
            "playerTotalScore": 66,
            "oppTotalScore": 39,
            "waitTime": 2422.4378911078056,
            "responseTime": 16168,
            "catchQuestion": "What number did your opponent report rolling?",
            "catchKey": -1,
            "catchResponse": -1,
            "catchResponseTime": -1,
            "trialTime": 9852
        },
        {
            "exptPart": "trial",
            "trialNumber": 15,
            "roleCurrent": "bullshitDetector",
            "diceSides": 10,
            "trueRoll": 6,
            "reportedRoll": 6,
            "compLie": 2,
            "compUnifLie": false,
            "compDetect": -1,
            "callBS": false,
            "playerTrialScore": 4,
            "oppTrialScore": 6,
            "playerTotalScore": 70,
            "oppTotalScore": 45,
            "waitTime": 6138.2285881423195,
            "responseTime": 2635,
            "catchQuestion": "What number did your opponent report rolling?",
            "catchKey": -1,
            "catchResponse": -1,
            "catchResponseTime": -1,
            "trialTime": 12034
        },
        {
            "exptPart": "trial",
            "trialNumber": 16,
            "roleCurrent": "bullshitter",
            "diceSides": 10,
            "trueRoll": 1,
            "reportedRoll": 2,
            "compLie": -1,
            "compUnifLie": false,
            "compDetect": 0.22727272727272727,
            "callBS": false,
            "playerTrialScore": 2,
            "oppTrialScore": 8,
            "playerTotalScore": 72,
            "oppTotalScore": 53,
            "waitTime": 2595.2184187053845,
            "responseTime": 11325,
            "catchQuestion": "What number did your opponent report rolling?",
            "catchKey": -1,
            "catchResponse": -1,
            "catchResponseTime": -1,
            "trialTime": 12060
        },
        {
            "exptPart": "trial",
            "trialNumber": 17,
            "roleCurrent": "bullshitDetector",
            "diceSides": 10,
            "trueRoll": 8,
            "reportedRoll": 8,
            "compLie": 6,
            "compUnifLie": false,
            "compDetect": -1,
            "callBS": false,
            "playerTrialScore": 2,
            "oppTrialScore": 8,
            "playerTotalScore": 74,
            "oppTotalScore": 61,
            "waitTime": 5465.368957423296,
            "responseTime": 7236,
            "catchQuestion": "What number did your opponent report rolling?",
            "catchKey": 8,
            "catchResponse": 8,
            "catchResponseTime": 3409,
            "trialTime": 19567
        },
        {
            "exptPart": "trial",
            "trialNumber": 18,
            "roleCurrent": "bullshitter",
            "diceSides": 10,
            "trueRoll": 1,
            "reportedRoll": 1,
            "compLie": -1,
            "compUnifLie": false,
            "compDetect": 0.13636363636363635,
            "callBS": false,
            "playerTrialScore": 1,
            "oppTrialScore": 9,
            "playerTotalScore": 75,
            "oppTotalScore": 70,
            "waitTime": 2730.711351924071,
            "responseTime": 20599,
            "catchQuestion": "What number did your opponent report rolling?",
            "catchKey": -1,
            "catchResponse": -1,
            "catchResponseTime": -1,
            "trialTime": 10571
        },
        {
            "exptPart": "trial",
            "trialNumber": 19,
            "roleCurrent": "bullshitDetector",
            "diceSides": 10,
            "trueRoll": 3,
            "reportedRoll": 4,
            "compLie": 4,
            "compUnifLie": false,
            "compDetect": -1,
            "callBS": true,
            "playerTrialScore": 5,
            "oppTrialScore": -5,
            "playerTotalScore": 80,
            "oppTotalScore": 65,
            "waitTime": 5203.075014842657,
            "responseTime": 1944,
            "catchQuestion": "What number did your opponent report rolling?",
            "catchKey": -1,
            "catchResponse": -1,
            "catchResponseTime": -1,
            "trialTime": 9490
        },
        {
            "exptPart": "trial",
            "trialNumber": 20,
            "roleCurrent": "bullshitter",
            "diceSides": 10,
            "trueRoll": 6,
            "reportedRoll": 6,
            "compLie": -1,
            "compUnifLie": false,
            "compDetect": 0.5909090909090909,
            "callBS": true,
            "playerTrialScore": 6,
            "oppTrialScore": -1,
            "playerTotalScore": 86,
            "oppTotalScore": 64,
            "waitTime": 2823.4860092706144,
            "responseTime": 9259,
            "catchQuestion": "What number did your opponent report rolling?",
            "catchKey": -1,
            "catchResponse": -1,
            "catchResponseTime": -1,
            "trialTime": 11288
        },
        {
            "exptPart": "trial",
            "trialNumber": 21,
            "roleCurrent": "bullshitDetector",
            "diceSides": 10,
            "trueRoll": 4,
            "reportedRoll": 10,
            "compLie": 10,
            "compUnifLie": false,
            "compDetect": -1,
            "callBS": false,
            "playerTrialScore": 0,
            "oppTrialScore": 10,
            "playerTotalScore": 86,
            "oppTotalScore": 74,
            "waitTime": 7093.0679541242525,
            "responseTime": 4110,
            "catchQuestion": "What number did your opponent report rolling?",
            "catchKey": -1,
            "catchResponse": -1,
            "catchResponseTime": -1,
            "trialTime": 12814
        },
        {
            "exptPart": "trial",
            "trialNumber": 22,
            "roleCurrent": "bullshitter",
            "diceSides": 10,
            "trueRoll": 1,
            "reportedRoll": 1,
            "compLie": -1,
            "compUnifLie": false,
            "compDetect": 0.13636363636363635,
            "callBS": false,
            "playerTrialScore": 1,
            "oppTrialScore": 9,
            "playerTotalScore": 87,
            "oppTotalScore": 83,
            "waitTime": 2082.0761048302693,
            "responseTime": 23529,
            "catchQuestion": "What number did your opponent report rolling?",
            "catchKey": -1,
            "catchResponse": -1,
            "catchResponseTime": -1,
            "trialTime": 22673
        },
        {
            "exptPart": "trial",
            "trialNumber": 23,
            "roleCurrent": "bullshitDetector",
            "diceSides": 10,
            "trueRoll": 2,
            "reportedRoll": 10,
            "compLie": 10,
            "compUnifLie": false,
            "compDetect": -1,
            "callBS": false,
            "playerTrialScore": 0,
            "oppTrialScore": 10,
            "playerTotalScore": 87,
            "oppTotalScore": 93,
            "waitTime": 5564.736221134517,
            "responseTime": 1919,
            "catchQuestion": "What number did your opponent report rolling?",
            "catchKey": -1,
            "catchResponse": -1,
            "catchResponseTime": -1,
            "trialTime": 9391
        },
        {
            "exptPart": "trial",
            "trialNumber": 24,
            "roleCurrent": "bullshitter",
            "diceSides": 10,
            "trueRoll": 6,
            "reportedRoll": 6,
            "compLie": -1,
            "compUnifLie": false,
            "compDetect": 0.5909090909090909,
            "callBS": true,
            "playerTrialScore": 6,
            "oppTrialScore": -1,
            "playerTotalScore": 93,
            "oppTotalScore": 92,
            "waitTime": 2564.0029322756836,
            "responseTime": 8948,
            "catchQuestion": "What number did your opponent report rolling?",
            "catchKey": -1,
            "catchResponse": -1,
            "catchResponseTime": -1,
            "trialTime": 15802
        },
        {
            "exptPart": "trial",
            "trialNumber": 25,
            "roleCurrent": "bullshitDetector",
            "diceSides": 10,
            "trueRoll": 7,
            "reportedRoll": 7,
            "compLie": 3,
            "compUnifLie": false,
            "compDetect": -1,
            "callBS": false,
            "playerTrialScore": 3,
            "oppTrialScore": 7,
            "playerTotalScore": 96,
            "oppTotalScore": 99,
            "waitTime": 5495.279618080631,
            "responseTime": 1366,
            "catchQuestion": "What number did your opponent report rolling?",
            "catchKey": -1,
            "catchResponse": -1,
            "catchResponseTime": -1,
            "trialTime": 8903
        },
        {
            "exptPart": "trial",
            "trialNumber": 26,
            "roleCurrent": "bullshitter",
            "diceSides": 10,
            "trueRoll": 0,
            "reportedRoll": 10,
            "compLie": -1,
            "compUnifLie": false,
            "compDetect": 0.9545454545454546,
            "callBS": true,
            "playerTrialScore": -5,
            "oppTrialScore": 5,
            "playerTotalScore": 91,
            "oppTotalScore": 104,
            "waitTime": 2335.6374433209585,
            "responseTime": 10445,
            "catchQuestion": "What number did your opponent report rolling?",
            "catchKey": -1,
            "catchResponse": -1,
            "catchResponseTime": -1,
            "trialTime": 12241
        },
        {
            "exptPart": "trial",
            "trialNumber": 27,
            "roleCurrent": "bullshitDetector",
            "diceSides": 10,
            "trueRoll": 5,
            "reportedRoll": 6,
            "compLie": 6,
            "compUnifLie": false,
            "compDetect": -1,
            "callBS": false,
            "playerTrialScore": 4,
            "oppTrialScore": 6,
            "playerTotalScore": 95,
            "oppTotalScore": 110,
            "waitTime": 6510.804868442338,
            "responseTime": 2363,
            "catchQuestion": "What number did your opponent report rolling?",
            "catchKey": -1,
            "catchResponse": -1,
            "catchResponseTime": -1,
            "trialTime": 10574
        },
        {
            "exptPart": "trial",
            "trialNumber": 28,
            "roleCurrent": "bullshitter",
            "diceSides": 10,
            "trueRoll": 0,
            "reportedRoll": 6,
            "compLie": -1,
            "compUnifLie": false,
            "compDetect": 0.5909090909090909,
            "callBS": true,
            "playerTrialScore": -5,
            "oppTrialScore": 5,
            "playerTotalScore": 90,
            "oppTotalScore": 115,
            "waitTime": 2601.2356465022876,
            "responseTime": 9777,
            "catchQuestion": "What number did your opponent report rolling?",
            "catchKey": -1,
            "catchResponse": -1,
            "catchResponseTime": -1,
            "trialTime": 10028
        },
        {
            "exptPart": "trial",
            "trialNumber": 29,
            "roleCurrent": "bullshitDetector",
            "diceSides": 10,
            "trueRoll": 7,
            "reportedRoll": 10,
            "compLie": 10,
            "compUnifLie": false,
            "compDetect": -1,
            "callBS": false,
            "playerTrialScore": 0,
            "oppTrialScore": 10,
            "playerTotalScore": 90,
            "oppTotalScore": 125,
            "waitTime": 5249.157046030986,
            "responseTime": 1389,
            "catchQuestion": "What number did your opponent report rolling?",
            "catchKey": -1,
            "catchResponse": -1,
            "catchResponseTime": -1,
            "trialTime": 8411
        },
        {
            "exptPart": "trial",
            "trialNumber": 30,
            "roleCurrent": "bullshitter",
            "diceSides": 10,
            "trueRoll": 9,
            "reportedRoll": 9,
            "compLie": -1,
            "compUnifLie": false,
            "compDetect": 0.8636363636363636,
            "callBS": true,
            "playerTrialScore": 9,
            "oppTrialScore": -4,
            "playerTotalScore": 99,
            "oppTotalScore": 121,
            "waitTime": 2719.871518871202,
            "responseTime": 8750,
            "catchQuestion": "What number did your opponent report rolling?",
            "catchKey": -1,
            "catchResponse": -1,
            "catchResponseTime": -1,
            "trialTime": 10384
        },
        {
            "exptPart": "trial",
            "trialNumber": 31,
            "roleCurrent": "bullshitDetector",
            "diceSides": 10,
            "trueRoll": 10,
            "reportedRoll": 10,
            "compLie": 4,
            "compUnifLie": false,
            "compDetect": -1,
            "callBS": false,
            "playerTrialScore": 0,
            "oppTrialScore": 10,
            "playerTotalScore": 99,
            "oppTotalScore": 131,
            "waitTime": 6458.963881638329,
            "responseTime": 1117,
            "catchQuestion": "What number did your opponent report rolling?",
            "catchKey": -1,
            "catchResponse": -1,
            "catchResponseTime": -1,
            "trialTime": 9589
        },
        {
            "exptPart": "trial",
            "trialNumber": 32,
            "roleCurrent": "bullshitter",
            "diceSides": 10,
            "trueRoll": 3,
            "reportedRoll": 3,
            "compLie": -1,
            "compUnifLie": false,
            "compDetect": 0.3181818181818182,
            "callBS": false,
            "playerTrialScore": 3,
            "oppTrialScore": 7,
            "playerTotalScore": 102,
            "oppTotalScore": 138,
            "waitTime": 3037.5434143402967,
            "responseTime": 11130,
            "catchQuestion": "What number did your opponent report rolling?",
            "catchKey": -1,
            "catchResponse": -1,
            "catchResponseTime": -1,
            "trialTime": 967665
        },
        {
            "exptPart": "trial",
            "trialNumber": 33,
            "roleCurrent": "bullshitDetector",
            "diceSides": 10,
            "trueRoll": 0,
            "reportedRoll": 10,
            "compLie": -1,
            "compUnifLie": true,
            "compDetect": -1,
            "callBS": false,
            "playerTrialScore": 0,
            "oppTrialScore": 10,
            "playerTotalScore": 102,
            "oppTotalScore": 148,
            "waitTime": 5890.810074496837,
            "responseTime": 3168,
            "catchQuestion": "What number did your opponent report rolling?",
            "catchKey": 10,
            "catchResponse": 10,
            "catchResponseTime": 9635,
            "trialTime": 20583
        },
        {
            "exptPart": "trial",
            "trialNumber": 34,
            "roleCurrent": "bullshitter",
            "diceSides": 10,
            "trueRoll": 8,
            "reportedRoll": 8,
            "compLie": -1,
            "compUnifLie": false,
            "compDetect": 0.7727272727272727,
            "callBS": false,
            "playerTrialScore": 8,
            "oppTrialScore": 2,
            "playerTotalScore": 110,
            "oppTotalScore": 150,
            "waitTime": 2082.8327090471566,
            "responseTime": 22617,
            "catchQuestion": "What number did your opponent report rolling?",
            "catchKey": -1,
            "catchResponse": -1,
            "catchResponseTime": -1,
            "trialTime": 12678
        },
        {
            "exptPart": "trial",
            "trialNumber": 35,
            "roleCurrent": "bullshitDetector",
            "diceSides": 10,
            "trueRoll": 10,
            "reportedRoll": 10,
            "compLie": 0,
            "compUnifLie": false,
            "compDetect": -1,
            "callBS": false,
            "playerTrialScore": 0,
            "oppTrialScore": 10,
            "playerTotalScore": 110,
            "oppTotalScore": 160,
            "waitTime": 5496.751863119218,
            "responseTime": 3555,
            "catchQuestion": "What number did your opponent report rolling?",
            "catchKey": 10,
            "catchResponse": 10,
            "catchResponseTime": 5290,
            "trialTime": 17229
        },
        {
            "exptPart": "trial",
            "trialNumber": 36,
            "roleCurrent": "bullshitter",
            "diceSides": 10,
            "trueRoll": 1,
            "reportedRoll": 1,
            "compLie": -1,
            "compUnifLie": false,
            "compDetect": 0.13636363636363635,
            "callBS": false,
            "playerTrialScore": 1,
            "oppTrialScore": 9,
            "playerTotalScore": 111,
            "oppTotalScore": 169,
            "waitTime": 2814.9052451678076,
            "responseTime": 18390,
            "catchQuestion": "What number did your opponent report rolling?",
            "catchKey": -1,
            "catchResponse": -1,
            "catchResponseTime": -1,
            "trialTime": 11704
        },
        {
            "exptPart": "trial",
            "trialNumber": 37,
            "roleCurrent": "bullshitDetector",
            "diceSides": 10,
            "trueRoll": 3,
            "reportedRoll": 6,
            "compLie": 6,
            "compUnifLie": false,
            "compDetect": -1,
            "callBS": false,
            "playerTrialScore": 4,
            "oppTrialScore": 6,
            "playerTotalScore": 115,
            "oppTotalScore": 175,
            "waitTime": 6116.171761169957,
            "responseTime": 2280,
            "catchQuestion": "What number did your opponent report rolling?",
            "catchKey": -1,
            "catchResponse": -1,
            "catchResponseTime": -1,
            "trialTime": 10662
        },
        {
            "exptPart": "trial",
            "trialNumber": 38,
            "roleCurrent": "bullshitter",
            "diceSides": 10,
            "trueRoll": 3,
            "reportedRoll": 3,
            "compLie": -1,
            "compUnifLie": false,
            "compDetect": 0.3181818181818182,
            "callBS": false,
            "playerTrialScore": 3,
            "oppTrialScore": 7,
            "playerTotalScore": 118,
            "oppTotalScore": 182,
            "waitTime": 2607.8454415240403,
            "responseTime": 11586,
            "catchQuestion": "What number did your opponent report rolling?",
            "catchKey": -1,
            "catchResponse": -1,
            "catchResponseTime": -1,
            "trialTime": 11713
        },
        {
            "exptPart": "trial",
            "trialNumber": 39,
            "roleCurrent": "bullshitDetector",
            "diceSides": 10,
            "trueRoll": 1,
            "reportedRoll": 6,
            "compLie": 6,
            "compUnifLie": false,
            "compDetect": -1,
            "callBS": false,
            "playerTrialScore": 4,
            "oppTrialScore": 6,
            "playerTotalScore": 122,
            "oppTotalScore": 188,
            "waitTime": 5540.505768632054,
            "responseTime": 1864,
            "catchQuestion": "What number did your opponent report rolling?",
            "catchKey": 6,
            "catchResponse": 6,
            "catchResponseTime": 3774,
            "trialTime": 13516
        },
        {
            "exptPart": "trial",
            "trialNumber": 40,
            "roleCurrent": "bullshitter",
            "diceSides": 10,
            "trueRoll": 0,
            "reportedRoll": 9,
            "compLie": -1,
            "compUnifLie": false,
            "compDetect": 0.8636363636363636,
            "callBS": false,
            "playerTrialScore": 9,
            "oppTrialScore": 1,
            "playerTotalScore": 131,
            "oppTotalScore": 189,
            "waitTime": 2626.51194187652,
            "responseTime": 31735,
            "catchQuestion": "What number did your opponent report rolling?",
            "catchKey": -1,
            "catchResponse": -1,
            "catchResponseTime": -1,
            "trialTime": 28865
        },
        {
            "exptPart": "trial",
            "trialNumber": 41,
            "roleCurrent": "bullshitDetector",
            "diceSides": 10,
            "trueRoll": 7,
            "reportedRoll": 7,
            "compLie": 7,
            "compUnifLie": false,
            "compDetect": -1,
            "callBS": false,
            "playerTrialScore": 3,
            "oppTrialScore": 7,
            "playerTotalScore": 134,
            "oppTotalScore": 196,
            "waitTime": 6357.362141663604,
            "responseTime": 1590,
            "catchQuestion": "What number did your opponent report rolling?",
            "catchKey": -1,
            "catchResponse": -1,
            "catchResponseTime": -1,
            "trialTime": 10075
        },
        {
            "exptPart": "trial",
            "trialNumber": 42,
            "roleCurrent": "bullshitter",
            "diceSides": 10,
            "trueRoll": 1,
            "reportedRoll": 1,
            "compLie": -1,
            "compUnifLie": false,
            "compDetect": 0.13636363636363635,
            "callBS": false,
            "playerTrialScore": 1,
            "oppTrialScore": 9,
            "playerTotalScore": 135,
            "oppTotalScore": 205,
            "waitTime": 2131.076618959826,
            "responseTime": 11950,
            "catchQuestion": "What number did your opponent report rolling?",
            "catchKey": -1,
            "catchResponse": -1,
            "catchResponseTime": -1,
            "trialTime": 13550
        },
        {
            "exptPart": "trial",
            "trialNumber": 43,
            "roleCurrent": "bullshitDetector",
            "diceSides": 10,
            "trueRoll": 2,
            "reportedRoll": 4,
            "compLie": 4,
            "compUnifLie": false,
            "compDetect": -1,
            "callBS": false,
            "playerTrialScore": 6,
            "oppTrialScore": 4,
            "playerTotalScore": 141,
            "oppTotalScore": 209,
            "waitTime": 5727.929745022891,
            "responseTime": 1531,
            "catchQuestion": "What number did your opponent report rolling?",
            "catchKey": -1,
            "catchResponse": -1,
            "catchResponseTime": -1,
            "trialTime": 9642
        },
        {
            "exptPart": "trial",
            "trialNumber": 44,
            "roleCurrent": "bullshitter",
            "diceSides": 10,
            "trueRoll": 1,
            "reportedRoll": 1,
            "compLie": -1,
            "compUnifLie": false,
            "compDetect": 0.13636363636363635,
            "callBS": false,
            "playerTrialScore": 1,
            "oppTrialScore": 9,
            "playerTotalScore": 142,
            "oppTotalScore": 218,
            "waitTime": 2452.655214961432,
            "responseTime": 720431,
            "catchQuestion": "What number did your opponent report rolling?",
            "catchKey": -1,
            "catchResponse": -1,
            "catchResponseTime": -1,
            "trialTime": 720840
        },
        {
            "exptPart": "trial",
            "trialNumber": 45,
            "roleCurrent": "bullshitDetector",
            "diceSides": 10,
            "trueRoll": 2,
            "reportedRoll": 1,
            "compLie": -1,
            "compUnifLie": true,
            "compDetect": -1,
            "callBS": false,
            "playerTrialScore": 9,
            "oppTrialScore": 1,
            "playerTotalScore": 151,
            "oppTotalScore": 219,
            "waitTime": 6825.095851099025,
            "responseTime": 1790,
            "catchQuestion": "What number did your opponent report rolling?",
            "catchKey": -1,
            "catchResponse": -1,
            "catchResponseTime": -1,
            "trialTime": 10479
        },
        {
            "exptPart": "trial",
            "trialNumber": 46,
            "roleCurrent": "bullshitter",
            "diceSides": 10,
            "trueRoll": 8,
            "reportedRoll": 8,
            "compLie": -1,
            "compUnifLie": false,
            "compDetect": 0.7727272727272727,
            "callBS": true,
            "playerTrialScore": 8,
            "oppTrialScore": -3,
            "playerTotalScore": 159,
            "oppTotalScore": 216,
            "waitTime": 2145.2406678046323,
            "responseTime": 9470,
            "catchQuestion": "What number did you roll?",
            "catchKey": 8,
            "catchResponse": 8,
            "catchResponseTime": 3464,
            "trialTime": 13401
        },
        {
            "exptPart": "trial",
            "trialNumber": 47,
            "roleCurrent": "bullshitDetector",
            "diceSides": 10,
            "trueRoll": 8,
            "reportedRoll": 8,
            "compLie": 7,
            "compUnifLie": false,
            "compDetect": -1,
            "callBS": false,
            "playerTrialScore": 2,
            "oppTrialScore": 8,
            "playerTotalScore": 161,
            "oppTotalScore": 224,
            "waitTime": 5298.322927666801,
            "responseTime": 799,
            "catchQuestion": "What number did you roll?",
            "catchKey": -1,
            "catchResponse": -1,
            "catchResponseTime": -1,
            "trialTime": 7856
        },
        {
            "exptPart": "trial",
            "trialNumber": 48,
            "roleCurrent": "bullshitter",
            "diceSides": 10,
            "trueRoll": 1,
            "reportedRoll": 1,
            "compLie": -1,
            "compUnifLie": false,
            "compDetect": 0.13636363636363635,
            "callBS": false,
            "playerTrialScore": 1,
            "oppTrialScore": 9,
            "playerTotalScore": 162,
            "oppTotalScore": 233,
            "waitTime": 2273.4946913113486,
            "responseTime": 8184,
            "catchQuestion": "What number did you roll?",
            "catchKey": -1,
            "catchResponse": -1,
            "catchResponseTime": -1,
            "trialTime": 9395
        },
        {
            "exptPart": "trial",
            "trialNumber": 49,
            "roleCurrent": "bullshitDetector",
            "diceSides": 10,
            "trueRoll": 3,
            "reportedRoll": 9,
            "compLie": 9,
            "compUnifLie": false,
            "compDetect": -1,
            "callBS": false,
            "playerTrialScore": 1,
            "oppTrialScore": 9,
            "playerTotalScore": 163,
            "oppTotalScore": 242,
            "waitTime": 6575.816341881813,
            "responseTime": 1403,
            "catchQuestion": "What number did you roll?",
            "catchKey": -1,
            "catchResponse": -1,
            "catchResponseTime": -1,
            "trialTime": 10298
        },
        {
            "exptPart": "trial",
            "trialNumber": 50,
            "roleCurrent": "bullshitter",
            "diceSides": 10,
            "trueRoll": 3,
            "reportedRoll": 3,
            "compLie": -1,
            "compUnifLie": false,
            "compDetect": 0.3181818181818182,
            "callBS": false,
            "playerTrialScore": 3,
            "oppTrialScore": 7,
            "playerTotalScore": 166,
            "oppTotalScore": 249,
            "waitTime": 2743.946621019755,
            "responseTime": 9789,
            "catchQuestion": "What number did you roll?",
            "catchKey": -1,
            "catchResponse": -1,
            "catchResponseTime": -1,
            "trialTime": 10802
        },
        {
            "exptPart": "trial",
            "trialNumber": 51,
            "roleCurrent": "bullshitDetector",
            "diceSides": 10,
            "trueRoll": 10,
            "reportedRoll": 10,
            "compLie": 7,
            "compUnifLie": false,
            "compDetect": -1,
            "callBS": false,
            "playerTrialScore": 0,
            "oppTrialScore": 10,
            "playerTotalScore": 166,
            "oppTotalScore": 259,
            "waitTime": 6852.431016470256,
            "responseTime": 2912,
            "catchQuestion": "What number did you roll?",
            "catchKey": -1,
            "catchResponse": -1,
            "catchResponseTime": -1,
            "trialTime": 12109
        },
        {
            "exptPart": "trial",
            "trialNumber": 52,
            "roleCurrent": "bullshitter",
            "diceSides": 10,
            "trueRoll": 5,
            "reportedRoll": 5,
            "compLie": -1,
            "compUnifLie": false,
            "compDetect": 0.5,
            "callBS": true,
            "playerTrialScore": 5,
            "oppTrialScore": 0,
            "playerTotalScore": 171,
            "oppTotalScore": 259,
            "waitTime": 2482.6627089058784,
            "responseTime": 10089,
            "catchQuestion": "What number did you roll?",
            "catchKey": 5,
            "catchResponse": 5,
            "catchResponseTime": 3745,
            "trialTime": 13965
        },
        {
            "exptPart": "trial",
            "trialNumber": 53,
            "roleCurrent": "bullshitDetector",
            "diceSides": 10,
            "trueRoll": 4,
            "reportedRoll": 10,
            "compLie": -1,
            "compUnifLie": true,
            "compDetect": -1,
            "callBS": false,
            "playerTrialScore": 0,
            "oppTrialScore": 10,
            "playerTotalScore": 171,
            "oppTotalScore": 269,
            "waitTime": 6320.618781303554,
            "responseTime": 1041,
            "catchQuestion": "What number did you roll?",
            "catchKey": -1,
            "catchResponse": -1,
            "catchResponseTime": -1,
            "trialTime": 9238
        },
        {
            "exptPart": "trial",
            "trialNumber": 54,
            "roleCurrent": "bullshitter",
            "diceSides": 10,
            "trueRoll": 4,
            "reportedRoll": 4,
            "compLie": -1,
            "compUnifLie": false,
            "compDetect": 0.4090909090909091,
            "callBS": false,
            "playerTrialScore": 4,
            "oppTrialScore": 6,
            "playerTotalScore": 175,
            "oppTotalScore": 275,
            "waitTime": 2398.8766767625493,
            "responseTime": 8709,
            "catchQuestion": "What number did you roll?",
            "catchKey": -1,
            "catchResponse": -1,
            "catchResponseTime": -1,
            "trialTime": 9923
        },
        {
            "exptPart": "trial",
            "trialNumber": 55,
            "roleCurrent": "bullshitDetector",
            "diceSides": 10,
            "trueRoll": 9,
            "reportedRoll": 9,
            "compLie": 7,
            "compUnifLie": false,
            "compDetect": -1,
            "callBS": false,
            "playerTrialScore": 1,
            "oppTrialScore": 9,
            "playerTotalScore": 176,
            "oppTotalScore": 284,
            "waitTime": 5306.454123605008,
            "responseTime": 1029,
            "catchQuestion": "What number did you roll?",
            "catchKey": -1,
            "catchResponse": -1,
            "catchResponseTime": -1,
            "trialTime": 8653
        },
        {
            "exptPart": "trial",
            "trialNumber": 56,
            "roleCurrent": "bullshitter",
            "diceSides": 10,
            "trueRoll": 3,
            "reportedRoll": 3,
            "compLie": -1,
            "compUnifLie": false,
            "compDetect": 0.3181818181818182,
            "callBS": false,
            "playerTrialScore": 3,
            "oppTrialScore": 7,
            "playerTotalScore": 179,
            "oppTotalScore": 291,
            "waitTime": 2094.353584310239,
            "responseTime": 10851,
            "catchQuestion": "What number did you roll?",
            "catchKey": -1,
            "catchResponse": -1,
            "catchResponseTime": -1,
            "trialTime": 13136
        },
        {
            "exptPart": "trial",
            "trialNumber": 57,
            "roleCurrent": "bullshitDetector",
            "diceSides": 10,
            "trueRoll": 3,
            "reportedRoll": 3,
            "compLie": 1,
            "compUnifLie": false,
            "compDetect": -1,
            "callBS": false,
            "playerTrialScore": 7,
            "oppTrialScore": 3,
            "playerTotalScore": 186,
            "oppTotalScore": 294,
            "waitTime": 6919.942122396444,
            "responseTime": 6309,
            "catchQuestion": "What number did you roll?",
            "catchKey": -1,
            "catchResponse": -1,
            "catchResponseTime": -1,
            "trialTime": 14720
        },
        {
            "exptPart": "trial",
            "trialNumber": 58,
            "roleCurrent": "bullshitter",
            "diceSides": 10,
            "trueRoll": 3,
            "reportedRoll": 3,
            "compLie": -1,
            "compUnifLie": false,
            "compDetect": 0.3181818181818182,
            "callBS": true,
            "playerTrialScore": 3,
            "oppTrialScore": 2,
            "playerTotalScore": 189,
            "oppTotalScore": 296,
            "waitTime": 2995.7940310753042,
            "responseTime": 13272,
            "catchQuestion": "What number did you roll?",
            "catchKey": -1,
            "catchResponse": -1,
            "catchResponseTime": -1,
            "trialTime": 10235
        },
        {
            "exptPart": "trial",
            "trialNumber": 59,
            "roleCurrent": "bullshitDetector",
            "diceSides": 10,
            "trueRoll": 1,
            "reportedRoll": 0,
            "compLie": -1,
            "compUnifLie": true,
            "compDetect": -1,
            "callBS": false,
            "playerTrialScore": 10,
            "oppTrialScore": 0,
            "playerTotalScore": 199,
            "oppTotalScore": 296,
            "waitTime": 7152.155760695953,
            "responseTime": 1177,
            "catchQuestion": "What number did you roll?",
            "catchKey": -1,
            "catchResponse": -1,
            "catchResponseTime": -1,
            "trialTime": 10421
        },
        {
            "exptPart": "trial",
            "trialNumber": 60,
            "roleCurrent": "bullshitter",
            "diceSides": 10,
            "trueRoll": 7,
            "reportedRoll": 7,
            "compLie": -1,
            "compUnifLie": false,
            "compDetect": 0.6818181818181818,
            "callBS": false,
            "playerTrialScore": 7,
            "oppTrialScore": 3,
            "playerTotalScore": 206,
            "oppTotalScore": 299,
            "waitTime": 2076.6295325074343,
            "responseTime": 8850,
            "catchQuestion": "What number did you roll?",
            "catchKey": -1,
            "catchResponse": -1,
            "catchResponseTime": -1,
            "trialTime": 9821
        },
        {
            "exptPart": "trial",
            "trialNumber": 61,
            "roleCurrent": "bullshitDetector",
            "diceSides": 10,
            "trueRoll": 0,
            "reportedRoll": 4,
            "compLie": 4,
            "compUnifLie": false,
            "compDetect": -1,
            "callBS": false,
            "playerTrialScore": 6,
            "oppTrialScore": 4,
            "playerTotalScore": 212,
            "oppTotalScore": 303,
            "waitTime": 6437.42426907703,
            "responseTime": 1824,
            "catchQuestion": "What number did you roll?",
            "catchKey": -1,
            "catchResponse": -1,
            "catchResponseTime": -1,
            "trialTime": 10269
        },
        {
            "exptPart": "trial",
            "trialNumber": 62,
            "roleCurrent": "bullshitter",
            "diceSides": 10,
            "trueRoll": 9,
            "reportedRoll": 9,
            "compLie": -1,
            "compUnifLie": false,
            "compDetect": 0.8636363636363636,
            "callBS": true,
            "playerTrialScore": 9,
            "oppTrialScore": -4,
            "playerTotalScore": 221,
            "oppTotalScore": 299,
            "waitTime": 2104.342734921115,
            "responseTime": 10987,
            "catchQuestion": "What number did you roll?",
            "catchKey": -1,
            "catchResponse": -1,
            "catchResponseTime": -1,
            "trialTime": 11253
        },
        {
            "exptPart": "trial",
            "trialNumber": 63,
            "roleCurrent": "bullshitDetector",
            "diceSides": 10,
            "trueRoll": 7,
            "reportedRoll": 7,
            "compLie": -1,
            "compUnifLie": true,
            "compDetect": -1,
            "callBS": false,
            "playerTrialScore": 3,
            "oppTrialScore": 7,
            "playerTotalScore": 224,
            "oppTotalScore": 306,
            "waitTime": 6342.329945668905,
            "responseTime": 1428,
            "catchQuestion": "What number did you roll?",
            "catchKey": -1,
            "catchResponse": -1,
            "catchResponseTime": -1,
            "trialTime": 9649
        },
        {
            "exptPart": "trial",
            "trialNumber": 64,
            "roleCurrent": "bullshitter",
            "diceSides": 10,
            "trueRoll": 1,
            "reportedRoll": 1,
            "compLie": -1,
            "compUnifLie": false,
            "compDetect": 0.13636363636363635,
            "callBS": false,
            "playerTrialScore": 1,
            "oppTrialScore": 9,
            "playerTotalScore": 225,
            "oppTotalScore": 315,
            "waitTime": 2730.888828848795,
            "responseTime": 10619,
            "catchQuestion": "What number did you roll?",
            "catchKey": 1,
            "catchResponse": 1,
            "catchResponseTime": 3816,
            "trialTime": 15934
        },
        {
            "exptPart": "trial",
            "trialNumber": 65,
            "roleCurrent": "bullshitDetector",
            "diceSides": 10,
            "trueRoll": 4,
            "reportedRoll": 8,
            "compLie": 8,
            "compUnifLie": false,
            "compDetect": -1,
            "callBS": false,
            "playerTrialScore": 2,
            "oppTrialScore": 8,
            "playerTotalScore": 227,
            "oppTotalScore": 323,
            "waitTime": 5850.690261474019,
            "responseTime": 971,
            "catchQuestion": "What number did you roll?",
            "catchKey": -1,
            "catchResponse": -1,
            "catchResponseTime": -1,
            "trialTime": 9149
        },
        {
            "exptPart": "trial",
            "trialNumber": 66,
            "roleCurrent": "bullshitter",
            "diceSides": 10,
            "trueRoll": 7,
            "reportedRoll": 7,
            "compLie": -1,
            "compUnifLie": false,
            "compDetect": 0.6818181818181818,
            "callBS": false,
            "playerTrialScore": 7,
            "oppTrialScore": 3,
            "playerTotalScore": 234,
            "oppTotalScore": 326,
            "waitTime": 2824.4627319060633,
            "responseTime": 8202,
            "catchQuestion": "What number did you roll?",
            "catchKey": -1,
            "catchResponse": -1,
            "catchResponseTime": -1,
            "trialTime": 12927
        },
        {
            "exptPart": "trial",
            "trialNumber": 67,
            "roleCurrent": "bullshitDetector",
            "diceSides": 10,
            "trueRoll": 8,
            "reportedRoll": 8,
            "compLie": 0,
            "compUnifLie": false,
            "compDetect": -1,
            "callBS": false,
            "playerTrialScore": 2,
            "oppTrialScore": 8,
            "playerTotalScore": 236,
            "oppTotalScore": 334,
            "waitTime": 6441.667548850213,
            "responseTime": 1201,
            "catchQuestion": "What number did you roll?",
            "catchKey": -1,
            "catchResponse": -1,
            "catchResponseTime": -1,
            "trialTime": 9588
        },
        {
            "exptPart": "trial",
            "trialNumber": 68,
            "roleCurrent": "bullshitter",
            "diceSides": 10,
            "trueRoll": 10,
            "reportedRoll": 10,
            "compLie": -1,
            "compUnifLie": false,
            "compDetect": 0.9545454545454546,
            "callBS": true,
            "playerTrialScore": 10,
            "oppTrialScore": -5,
            "playerTotalScore": 246,
            "oppTotalScore": 329,
            "waitTime": 2386.130543827833,
            "responseTime": 9981,
            "catchQuestion": "What number did you roll?",
            "catchKey": -1,
            "catchResponse": -1,
            "catchResponseTime": -1,
            "trialTime": 15716
        },
        {
            "exptPart": "trial",
            "trialNumber": 69,
            "roleCurrent": "bullshitDetector",
            "diceSides": 10,
            "trueRoll": 7,
            "reportedRoll": 7,
            "compLie": 2,
            "compUnifLie": false,
            "compDetect": -1,
            "callBS": false,
            "playerTrialScore": 3,
            "oppTrialScore": 7,
            "playerTotalScore": 249,
            "oppTotalScore": 336,
            "waitTime": 7199.719630503118,
            "responseTime": 680,
            "catchQuestion": "What number did you roll?",
            "catchKey": -1,
            "catchResponse": -1,
            "catchResponseTime": -1,
            "trialTime": 9455
        },
        {
            "exptPart": "trial",
            "trialNumber": 70,
            "roleCurrent": "bullshitter",
            "diceSides": 10,
            "trueRoll": 9,
            "reportedRoll": 9,
            "compLie": -1,
            "compUnifLie": false,
            "compDetect": 0.8636363636363636,
            "callBS": true,
            "playerTrialScore": 9,
            "oppTrialScore": -4,
            "playerTotalScore": 258,
            "oppTotalScore": 332,
            "waitTime": 2950.672894101709,
            "responseTime": 6713,
            "catchQuestion": "What number did you roll?",
            "catchKey": -1,
            "catchResponse": -1,
            "catchResponseTime": -1,
            "trialTime": 9957
        },
        {
            "exptPart": "trial",
            "trialNumber": 71,
            "roleCurrent": "bullshitDetector",
            "diceSides": 10,
            "trueRoll": 9,
            "reportedRoll": 9,
            "compLie": 7,
            "compUnifLie": false,
            "compDetect": -1,
            "callBS": false,
            "playerTrialScore": 1,
            "oppTrialScore": 9,
            "playerTotalScore": 259,
            "oppTotalScore": 341,
            "waitTime": 7226.348650701963,
            "responseTime": 1637,
            "catchQuestion": "What number did you roll?",
            "catchKey": -1,
            "catchResponse": -1,
            "catchResponseTime": -1,
            "trialTime": 11184
        },
        {
            "exptPart": "trial",
            "trialNumber": 72,
            "roleCurrent": "bullshitter",
            "diceSides": 10,
            "trueRoll": 10,
            "reportedRoll": 10,
            "compLie": -1,
            "compUnifLie": false,
            "compDetect": 0.9545454545454546,
            "callBS": true,
            "playerTrialScore": 10,
            "oppTrialScore": -5,
            "playerTotalScore": 269,
            "oppTotalScore": 336,
            "waitTime": 3135.231259376904,
            "responseTime": 10731,
            "catchQuestion": "What number did you roll?",
            "catchKey": 10,
            "catchResponse": 10,
            "catchResponseTime": 4068,
            "trialTime": 16350
        },
        {
            "exptPart": "trial",
            "trialNumber": 73,
            "roleCurrent": "bullshitDetector",
            "diceSides": 10,
            "trueRoll": 0,
            "reportedRoll": 10,
            "compLie": 10,
            "compUnifLie": false,
            "compDetect": -1,
            "callBS": false,
            "playerTrialScore": 0,
            "oppTrialScore": 10,
            "playerTotalScore": 269,
            "oppTotalScore": 346,
            "waitTime": 6318.741956726518,
            "responseTime": 1398,
            "catchQuestion": "What number did you roll?",
            "catchKey": -1,
            "catchResponse": -1,
            "catchResponseTime": -1,
            "trialTime": 9630
        },
        {
            "exptPart": "trial",
            "trialNumber": 74,
            "roleCurrent": "bullshitter",
            "diceSides": 10,
            "trueRoll": 10,
            "reportedRoll": 10,
            "compLie": -1,
            "compUnifLie": false,
            "compDetect": 0.9545454545454546,
            "callBS": true,
            "playerTrialScore": 10,
            "oppTrialScore": -5,
            "playerTotalScore": 279,
            "oppTotalScore": 341,
            "waitTime": 2930.149745048946,
            "responseTime": 9511,
            "catchQuestion": "What number did you roll?",
            "catchKey": -1,
            "catchResponse": -1,
            "catchResponseTime": -1,
            "trialTime": 11026
        },
        {
            "exptPart": "trial",
            "trialNumber": 75,
            "roleCurrent": "bullshitDetector",
            "diceSides": 10,
            "trueRoll": 7,
            "reportedRoll": 7,
            "compLie": 7,
            "compUnifLie": false,
            "compDetect": -1,
            "callBS": false,
            "playerTrialScore": 3,
            "oppTrialScore": 7,
            "playerTotalScore": 282,
            "oppTotalScore": 348,
            "waitTime": 5967.04461558227,
            "responseTime": 2437,
            "catchQuestion": "What number did your opponent report rolling?",
            "catchKey": 7,
            "catchResponse": 7,
            "catchResponseTime": 5075,
            "trialTime": 15109
        },
        {
            "exptPart": "trial",
            "trialNumber": 76,
            "roleCurrent": "bullshitter",
            "diceSides": 10,
            "trueRoll": 7,
            "reportedRoll": 7,
            "compLie": -1,
            "compUnifLie": false,
            "compDetect": 0.6818181818181818,
            "callBS": true,
            "playerTrialScore": 7,
            "oppTrialScore": -2,
            "playerTotalScore": 289,
            "oppTotalScore": 346,
            "waitTime": 3224.634968941316,
            "responseTime": 14920,
            "catchQuestion": "What number did your opponent report rolling?",
            "catchKey": -1,
            "catchResponse": -1,
            "catchResponseTime": -1,
            "trialTime": 11322
        },
        {
            "exptPart": "trial",
            "trialNumber": 77,
            "roleCurrent": "bullshitDetector",
            "diceSides": 10,
            "trueRoll": 6,
            "reportedRoll": 6,
            "compLie": 6,
            "compUnifLie": false,
            "compDetect": -1,
            "callBS": false,
            "playerTrialScore": 4,
            "oppTrialScore": 6,
            "playerTotalScore": 293,
            "oppTotalScore": 352,
            "waitTime": 5490.405790112497,
            "responseTime": 3120,
            "catchQuestion": "What number did your opponent report rolling?",
            "catchKey": -1,
            "catchResponse": -1,
            "catchResponseTime": -1,
            "trialTime": 10376
        },
        {
            "exptPart": "trial",
            "trialNumber": 78,
            "roleCurrent": "bullshitter",
            "diceSides": 10,
            "trueRoll": 0,
            "reportedRoll": 10,
            "compLie": -1,
            "compUnifLie": false,
            "compDetect": 0.9545454545454546,
            "callBS": false,
            "playerTrialScore": 10,
            "oppTrialScore": 0,
            "playerTotalScore": 303,
            "oppTotalScore": 352,
            "waitTime": 3207.0834130786875,
            "responseTime": 16031,
            "catchQuestion": "What number did your opponent report rolling?",
            "catchKey": -1,
            "catchResponse": -1,
            "catchResponseTime": -1,
            "trialTime": 16045
        },
        {
            "exptPart": "trial",
            "trialNumber": 79,
            "roleCurrent": "bullshitDetector",
            "diceSides": 10,
            "trueRoll": 9,
            "reportedRoll": 9,
            "compLie": 9,
            "compUnifLie": false,
            "compDetect": -1,
            "callBS": false,
            "playerTrialScore": 1,
            "oppTrialScore": 9,
            "playerTotalScore": 304,
            "oppTotalScore": 361,
            "waitTime": 5839.513497258005,
            "responseTime": 1711,
            "catchQuestion": "What number did your opponent report rolling?",
            "catchKey": 9,
            "catchResponse": 9,
            "catchResponseTime": 3664,
            "trialTime": 13061
        },
        {
            "exptPart": "trial",
            "trialNumber": 80,
            "roleCurrent": "bullshitter",
            "diceSides": 10,
            "trueRoll": 6,
            "reportedRoll": 9,
            "compLie": -1,
            "compUnifLie": false,
            "compDetect": 0.8636363636363636,
            "callBS": true,
            "playerTrialScore": -5,
            "oppTrialScore": 5,
            "playerTotalScore": 299,
            "oppTotalScore": 366,
            "waitTime": 2110.24728474541,
            "responseTime": 12528,
            "catchQuestion": "What number did your opponent report rolling?",
            "catchKey": -1,
            "catchResponse": -1,
            "catchResponseTime": -1,
            "trialTime": 9490
        },
        {
            "exptPart": "trial",
            "trialNumber": 81,
            "roleCurrent": "bullshitDetector",
            "diceSides": 10,
            "trueRoll": 0,
            "reportedRoll": 5,
            "compLie": 5,
            "compUnifLie": false,
            "compDetect": -1,
            "callBS": false,
            "playerTrialScore": 5,
            "oppTrialScore": 5,
            "playerTotalScore": 304,
            "oppTotalScore": 371,
            "waitTime": 6639.161639938451,
            "responseTime": 1616,
            "catchQuestion": "What number did your opponent report rolling?",
            "catchKey": -1,
            "catchResponse": -1,
            "catchResponseTime": -1,
            "trialTime": 10175
        },
        {
            "exptPart": "trial",
            "trialNumber": 82,
            "roleCurrent": "bullshitter",
            "diceSides": 10,
            "trueRoll": 5,
            "reportedRoll": 5,
            "compLie": -1,
            "compUnifLie": false,
            "compDetect": 0.5,
            "callBS": true,
            "playerTrialScore": 5,
            "oppTrialScore": 0,
            "playerTotalScore": 309,
            "oppTotalScore": 371,
            "waitTime": 2251.0067549361843,
            "responseTime": 8200,
            "catchQuestion": "What number did your opponent report rolling?",
            "catchKey": -1,
            "catchResponse": -1,
            "catchResponseTime": -1,
            "trialTime": 8883
        },
        {
            "exptPart": "trial",
            "trialNumber": 83,
            "roleCurrent": "bullshitDetector",
            "diceSides": 10,
            "trueRoll": 10,
            "reportedRoll": 10,
            "compLie": 10,
            "compUnifLie": false,
            "compDetect": -1,
            "callBS": false,
            "playerTrialScore": 0,
            "oppTrialScore": 10,
            "playerTotalScore": 309,
            "oppTotalScore": 381,
            "waitTime": 7163.805041035027,
            "responseTime": 1462,
            "catchQuestion": "What number did your opponent report rolling?",
            "catchKey": -1,
            "catchResponse": -1,
            "catchResponseTime": -1,
            "trialTime": 12083
        },
        {
            "exptPart": "trial",
            "trialNumber": 84,
            "roleCurrent": "bullshitter",
            "diceSides": 10,
            "trueRoll": 7,
            "reportedRoll": 10,
            "compLie": -1,
            "compUnifLie": false,
            "compDetect": 0.9545454545454546,
            "callBS": true,
            "playerTrialScore": -5,
            "oppTrialScore": 5,
            "playerTotalScore": 304,
            "oppTotalScore": 386,
            "waitTime": 2319.008083348425,
            "responseTime": 13527,
            "catchQuestion": "What number did your opponent report rolling?",
            "catchKey": -1,
            "catchResponse": -1,
            "catchResponseTime": -1,
            "trialTime": 12788
        },
        {
            "exptPart": "trial",
            "trialNumber": 85,
            "roleCurrent": "bullshitDetector",
            "diceSides": 10,
            "trueRoll": 4,
            "reportedRoll": 4,
            "compLie": 1,
            "compUnifLie": false,
            "compDetect": -1,
            "callBS": false,
            "playerTrialScore": 6,
            "oppTrialScore": 4,
            "playerTotalScore": 310,
            "oppTotalScore": 390,
            "waitTime": 7361.766892085693,
            "responseTime": 827692,
            "catchQuestion": "What number did your opponent report rolling?",
            "catchKey": -1,
            "catchResponse": -1,
            "catchResponseTime": -1,
            "trialTime": 838257
        },
        {
            "exptPart": "trial",
            "trialNumber": 86,
            "roleCurrent": "bullshitter",
            "diceSides": 10,
            "trueRoll": 6,
            "reportedRoll": 7,
            "compLie": -1,
            "compUnifLie": false,
            "compDetect": 0.6818181818181818,
            "callBS": false,
            "playerTrialScore": 7,
            "oppTrialScore": 3,
            "playerTotalScore": 317,
            "oppTotalScore": 393,
            "waitTime": 2741.033934451455,
            "responseTime": 840902,
            "catchQuestion": "What number did your opponent report rolling?",
            "catchKey": -1,
            "catchResponse": -1,
            "catchResponseTime": -1,
            "trialTime": 15520
        },
        {
            "exptPart": "trial",
            "trialNumber": 87,
            "roleCurrent": "bullshitDetector",
            "diceSides": 10,
            "trueRoll": 3,
            "reportedRoll": 4,
            "compLie": 4,
            "compUnifLie": false,
            "compDetect": -1,
            "callBS": false,
            "playerTrialScore": 6,
            "oppTrialScore": 4,
            "playerTotalScore": 323,
            "oppTotalScore": 397,
            "waitTime": 6178.530374792845,
            "responseTime": 1966,
            "catchQuestion": "What number did your opponent report rolling?",
            "catchKey": -1,
            "catchResponse": -1,
            "catchResponseTime": -1,
            "trialTime": 9730
        },
        {
            "exptPart": "trial",
            "trialNumber": 88,
            "roleCurrent": "bullshitter",
            "diceSides": 10,
            "trueRoll": 6,
            "reportedRoll": 6,
            "compLie": -1,
            "compUnifLie": false,
            "compDetect": 0.5909090909090909,
            "callBS": false,
            "playerTrialScore": 6,
            "oppTrialScore": 4,
            "playerTotalScore": 329,
            "oppTotalScore": 401,
            "waitTime": 2073.6259115622333,
            "responseTime": 10295,
            "catchQuestion": "What number did your opponent report rolling?",
            "catchKey": -1,
            "catchResponse": -1,
            "catchResponseTime": -1,
            "trialTime": 11769
        },
        {
            "exptPart": "trial",
            "trialNumber": 89,
            "roleCurrent": "bullshitDetector",
            "diceSides": 10,
            "trueRoll": 5,
            "reportedRoll": 5,
            "compLie": 1,
            "compUnifLie": false,
            "compDetect": -1,
            "callBS": true,
            "playerTrialScore": 0,
            "oppTrialScore": 5,
            "playerTotalScore": 329,
            "oppTotalScore": 406,
            "waitTime": 6753.153270401588,
            "responseTime": 3385,
            "catchQuestion": "What number did your opponent report rolling?",
            "catchKey": -1,
            "catchResponse": -1,
            "catchResponseTime": -1,
            "trialTime": 12405
        },
        {
            "exptPart": "trial",
            "trialNumber": 90,
            "roleCurrent": "bullshitter",
            "diceSides": 10,
            "trueRoll": 4,
            "reportedRoll": 4,
            "compLie": -1,
            "compUnifLie": false,
            "compDetect": 0.4090909090909091,
            "callBS": false,
            "playerTrialScore": 4,
            "oppTrialScore": 6,
            "playerTotalScore": 333,
            "oppTotalScore": 412,
            "waitTime": 2753.3316455481745,
            "responseTime": 23925,
            "catchQuestion": "What number did your opponent report rolling?",
            "catchKey": -1,
            "catchResponse": -1,
            "catchResponseTime": -1,
            "trialTime": 23137
        },
        {
            "exptPart": "trial",
            "trialNumber": 91,
            "roleCurrent": "bullshitDetector",
            "diceSides": 10,
            "trueRoll": 7,
            "reportedRoll": 1,
            "compLie": -1,
            "compUnifLie": true,
            "compDetect": -1,
            "callBS": false,
            "playerTrialScore": 9,
            "oppTrialScore": 1,
            "playerTotalScore": 342,
            "oppTotalScore": 413,
            "waitTime": 7496.68081119275,
            "responseTime": 1663,
            "catchQuestion": "What number did your opponent report rolling?",
            "catchKey": 1,
            "catchResponse": 7,
            "catchResponseTime": 3975,
            "trialTime": 17993
        },
        {
            "exptPart": "trial",
            "trialNumber": 92,
            "roleCurrent": "bullshitter",
            "diceSides": 10,
            "trueRoll": 3,
            "reportedRoll": 3,
            "compLie": -1,
            "compUnifLie": false,
            "compDetect": 0.3181818181818182,
            "callBS": true,
            "playerTrialScore": 3,
            "oppTrialScore": 2,
            "playerTotalScore": 345,
            "oppTotalScore": 415,
            "waitTime": 2185.8701633482433,
            "responseTime": 17803,
            "catchQuestion": "What number did your opponent report rolling?",
            "catchKey": -1,
            "catchResponse": -1,
            "catchResponseTime": -1,
            "trialTime": 10860
        },
        {
            "exptPart": "trial",
            "trialNumber": 93,
            "roleCurrent": "bullshitDetector",
            "diceSides": 10,
            "trueRoll": 5,
            "reportedRoll": 5,
            "compLie": 5,
            "compUnifLie": false,
            "compDetect": -1,
            "callBS": false,
            "playerTrialScore": 5,
            "oppTrialScore": 5,
            "playerTotalScore": 350,
            "oppTotalScore": 420,
            "waitTime": 7287.720194379063,
            "responseTime": 1617,
            "catchQuestion": "What number did your opponent report rolling?",
            "catchKey": -1,
            "catchResponse": -1,
            "catchResponseTime": -1,
            "trialTime": 11256
        },
        {
            "exptPart": "trial",
            "trialNumber": 94,
            "roleCurrent": "bullshitter",
            "diceSides": 10,
            "trueRoll": 3,
            "reportedRoll": 3,
            "compLie": -1,
            "compUnifLie": false,
            "compDetect": 0.3181818181818182,
            "callBS": true,
            "playerTrialScore": 3,
            "oppTrialScore": 2,
            "playerTotalScore": 353,
            "oppTotalScore": 422,
            "waitTime": 2144.748830988581,
            "responseTime": 9872,
            "catchQuestion": "What number did your opponent report rolling?",
            "catchKey": -1,
            "catchResponse": -1,
            "catchResponseTime": -1,
            "trialTime": 9716
        },
        {
            "exptPart": "trial",
            "trialNumber": 95,
            "roleCurrent": "bullshitDetector",
            "diceSides": 10,
            "trueRoll": 3,
            "reportedRoll": 9,
            "compLie": 9,
            "compUnifLie": false,
            "compDetect": -1,
            "callBS": false,
            "playerTrialScore": 1,
            "oppTrialScore": 9,
            "playerTotalScore": 354,
            "oppTotalScore": 431,
            "waitTime": 6868.6873075970925,
            "responseTime": 1100,
            "catchQuestion": "What number did your opponent report rolling?",
            "catchKey": -1,
            "catchResponse": -1,
            "catchResponseTime": -1,
            "trialTime": 12971
        },
        {
            "exptPart": "trial",
            "trialNumber": 96,
            "roleCurrent": "bullshitter",
            "diceSides": 10,
            "trueRoll": 3,
            "reportedRoll": 3,
            "compLie": -1,
            "compUnifLie": false,
            "compDetect": 0.3181818181818182,
            "callBS": false,
            "playerTrialScore": 3,
            "oppTrialScore": 7,
            "playerTotalScore": 357,
            "oppTotalScore": 438,
            "waitTime": 2267.6738235428647,
            "responseTime": 12359,
            "catchQuestion": "What number did you roll?",
            "catchKey": 3,
            "catchResponse": 3,
            "catchResponseTime": 3239,
            "trialTime": 14216
        },
        {
            "exptPart": "trial",
            "trialNumber": 97,
            "roleCurrent": "bullshitDetector",
            "diceSides": 10,
            "trueRoll": 3,
            "reportedRoll": 5,
            "compLie": 5,
            "compUnifLie": false,
            "compDetect": -1,
            "callBS": false,
            "playerTrialScore": 5,
            "oppTrialScore": 5,
            "playerTotalScore": 362,
            "oppTotalScore": 443,
            "waitTime": 6524.733022126027,
            "responseTime": 2441,
            "catchQuestion": "What number did you roll?",
            "catchKey": -1,
            "catchResponse": -1,
            "catchResponseTime": -1,
            "trialTime": 11372
        },
        {
            "exptPart": "trial",
            "trialNumber": 98,
            "roleCurrent": "bullshitter",
            "diceSides": 10,
            "trueRoll": 3,
            "reportedRoll": 3,
            "compLie": -1,
            "compUnifLie": false,
            "compDetect": 0.3181818181818182,
            "callBS": false,
            "playerTrialScore": 3,
            "oppTrialScore": 7,
            "playerTotalScore": 365,
            "oppTotalScore": 450,
            "waitTime": 2535.9607934880414,
            "responseTime": 13094,
            "catchQuestion": "What number did you roll?",
            "catchKey": -1,
            "catchResponse": -1,
            "catchResponseTime": -1,
            "trialTime": 12880
        },
        {
            "exptPart": "trial",
            "trialNumber": 99,
            "roleCurrent": "bullshitDetector",
            "diceSides": 10,
            "trueRoll": 4,
            "reportedRoll": 5,
            "compLie": 5,
            "compUnifLie": false,
            "compDetect": -1,
            "callBS": false,
            "playerTrialScore": 5,
            "oppTrialScore": 5,
            "playerTotalScore": 370,
            "oppTotalScore": 455,
            "waitTime": 6056.584934629754,
            "responseTime": 1299,
            "catchQuestion": "What number did your opponent report rolling?",
            "catchKey": 5,
            "catchResponse": 5,
            "catchResponseTime": 3414,
            "trialTime": 12814
        },
        {
            "exptPart": "trial",
            "trialNumber": 100,
            "roleCurrent": "bullshitter",
            "diceSides": 10,
            "trueRoll": 9,
            "reportedRoll": 9,
            "compLie": -1,
            "compUnifLie": false,
            "compDetect": 0.8636363636363636,
            "callBS": true,
            "playerTrialScore": 9,
            "oppTrialScore": -4,
            "playerTotalScore": 379,
            "oppTotalScore": 451,
            "waitTime": 2371.1821870917283,
            "responseTime": 12094,
            "catchQuestion": "What number did your opponent report rolling?",
            "catchKey": -1,
            "catchResponse": -1,
            "catchResponseTime": -1,
            "trialTime": 10105
        }
    ]
}