{
    "client": {
        "type": "sona",
        "experiment_id": 1505,
        "credit_token": "b20092f9d3b34a378ee654bcc50710ea",
        "survey_code": "31724",
        "sid": "sona-31724",
        "window": {
            "width": 1280,
            "height": 578
        },
        "screen": {
            "width": 1280,
            "height": 720
        },
        "userAgent": "Mozilla\/5.0 (Windows NT 10.0; Win64; x64) AppleWebKit\/537.36 (KHTML, like Gecko) Chrome\/84.0.4147.89 Safari\/537.36",
        "score": 0,
        "bonus": 0
    },
    "expt": {
        "saveURL": "submit.simple.php",
        "trials": 100,
        "practiceTrials": 4,
        "marblesSampled": 10,
        "roles": [
            "bullshitter",
            "bullshitDetector"
        ],
        "roleFirst": "bullshitter",
        "allTrialProbs": [
            0.2,
            0.5,
            0.8
        ],
        "occlude": "computer",
        "catchTrials": [
            39,
            75,
            49,
            3,
            7,
            64,
            30,
            13,
            73,
            20,
            26,
            63,
            14,
            77,
            11
        ],
        "pseudo": {
            "3": 2,
            "7": 8,
            "8": 4,
            "11": 7,
            "16": 2,
            "21": 9,
            "24": 6,
            "27": 5,
            "35": 6,
            "38": 3,
            "40": 7,
            "46": 1,
            "48": 0,
            "51": 0,
            "55": 4,
            "58": 9,
            "63": 3,
            "74": 10,
            "77": 1,
            "82": 8,
            "88": 5,
            "101": 10
        },
        "stat": {
            "playerTotalScore": 450,
            "oppTotalScore": 335,
            "truth": 31,
            "truth_noBS": 14,
            "truth_BS": 17,
            "lie": 19,
            "lie_noBS": 15,
            "lie_BS": 4,
            "noBS": 40,
            "noBS_truth": 14,
            "noBS_lie": 26,
            "BS": 10,
            "BS_truth": 2,
            "BS_lie": 8
        },
        "sona": {
            "experiment_id": 1505,
            "credit_token": "b20092f9d3b34a378ee654bcc50710ea"
        },
        "debug": false
    },
    "trials": [
        {
            "exptPart": "practice",
            "trialNumber": 1,
            "roleCurrent": "bullshitter",
            "marblesSampled": 10,
            "asymm": true,
            "probBullshitterRed": 0.5,
            "probBullshitDetectorRed": 0.8,
            "probGlobal": 0.51875,
            "drawnRed": 4,
            "reportedDrawn": 4,
            "compLie": -1,
            "compUnifLie": false,
            "compDetect": -0.11782097919999997,
            "callBS": false,
            "playerTrialScore": 4,
            "oppTrialScore": 6,
            "playerTotalScore": 4,
            "oppTotalScore": 6,
            "waitTime": 2554.3122972547035,
            "responseTime": 25068,
            "catchQuestion": "How many red marbles did you actually draw?",
            "catchKey": 4,
            "catchResponse": 4,
            "catchResponseTime": 20475,
            "pseudoRound": false,
            "trialTime": 70854
        },
        {
            "exptPart": "practice",
            "trialNumber": 2,
            "roleCurrent": "bullshitDetector",
            "marblesSampled": 10,
            "asymm": false,
            "probBullshitterRed": 0.8,
            "probBullshitDetectorRed": 0.8,
            "probGlobal": 0.8,
            "drawnRed": 9,
            "reportedDrawn": 9,
            "compLie": 9,
            "compUnifLie": false,
            "compDetect": -1,
            "callBS": false,
            "playerTrialScore": 1,
            "oppTrialScore": 9,
            "playerTotalScore": 5,
            "oppTotalScore": 15,
            "waitTime": 7475.199706708577,
            "responseTime": 14494,
            "catchQuestion": "What was the proportion of red to blue marbles from your perspective?",
            "catchKey": 80,
            "catchResponse": "93",
            "catchResponseTime": 18447,
            "pseudoRound": false,
            "trialTime": 49058
        },
        {
            "exptPart": "practice",
            "trialNumber": 3,
            "roleCurrent": "bullshitter",
            "marblesSampled": 10,
            "asymm": true,
            "probBullshitterRed": 0.8,
            "probBullshitDetectorRed": 0.5,
            "probGlobal": 0.78125,
            "drawnRed": 7,
            "reportedDrawn": 6,
            "compLie": -1,
            "compUnifLie": false,
            "compDetect": 0.705078125,
            "callBS": false,
            "playerTrialScore": 6,
            "oppTrialScore": 4,
            "playerTotalScore": 11,
            "oppTotalScore": 19,
            "waitTime": 2649.3894820540368,
            "responseTime": 20918,
            "catchQuestion": "How many red marbles did you actually draw?",
            "catchKey": 7,
            "catchResponse": 7,
            "catchResponseTime": 10044,
            "pseudoRound": false,
            "trialTime": 67145
        },
        {
            "exptPart": "practice",
            "trialNumber": 4,
            "roleCurrent": "bullshitDetector",
            "marblesSampled": 10,
            "asymm": true,
            "probBullshitterRed": 0.2,
            "probBullshitDetectorRed": 0.5,
            "probGlobal": 0.21875,
            "drawnRed": 2,
            "reportedDrawn": 5,
            "compLie": 5,
            "compUnifLie": false,
            "compDetect": -1,
            "callBS": true,
            "playerTrialScore": 5,
            "oppTrialScore": -5,
            "playerTotalScore": 16,
            "oppTotalScore": 14,
            "waitTime": 5898.866180973075,
            "responseTime": 18907,
            "catchQuestion": "What was the proportion of red to blue marbles from your opponent's perspective?",
            "catchKey": "NA",
            "catchResponse": "50",
            "catchResponseTime": 8368,
            "pseudoRound": false,
            "trialTime": 42312
        },
        {
            "exptPart": "trial",
            "trialNumber": 1,
            "roleCurrent": "bullshitter",
            "marblesSampled": 10,
            "asymm": false,
            "probBullshitterRed": 0.2,
            "probBullshitDetectorRed": 0.2,
            "probGlobal": 0.2,
            "drawnRed": 3,
            "reportedDrawn": 3,
            "compLie": -1,
            "compUnifLie": false,
            "compDetect": 0.7013265920000001,
            "callBS": true,
            "playerTrialScore": 3,
            "oppTrialScore": 2,
            "playerTotalScore": 3,
            "oppTotalScore": 2,
            "waitTime": 2972.6117377999744,
            "responseTime": 30843,
            "catchQuestion": "What was the proportion of red to blue marbles from your opponent's perspective?",
            "catchKey": -1,
            "catchResponse": -1,
            "catchResponseTime": -1,
            "pseudoRound": false,
            "trialTime": 46420
        },
        {
            "exptPart": "trial",
            "trialNumber": 2,
            "roleCurrent": "bullshitDetector",
            "marblesSampled": 10,
            "asymm": true,
            "probBullshitterRed": 0.2,
            "probBullshitDetectorRed": 0.8,
            "probGlobal": 0.2375,
            "drawnRed": 0,
            "reportedDrawn": 9,
            "compLie": 9,
            "compUnifLie": false,
            "compDetect": -1,
            "callBS": true,
            "playerTrialScore": 5,
            "oppTrialScore": -5,
            "playerTotalScore": 8,
            "oppTotalScore": -3,
            "waitTime": 5155.840078105324,
            "responseTime": 20913,
            "catchQuestion": "What was the proportion of red to blue marbles from your opponent's perspective?",
            "catchKey": -1,
            "catchResponse": -1,
            "catchResponseTime": -1,
            "pseudoRound": false,
            "trialTime": 28509
        },
        {
            "exptPart": "trial",
            "trialNumber": 3,
            "roleCurrent": "bullshitter",
            "marblesSampled": 10,
            "asymm": false,
            "probBullshitterRed": 0.2,
            "probBullshitDetectorRed": 0.2,
            "probGlobal": 0.2,
            "drawnRed": 4,
            "reportedDrawn": 4,
            "compLie": -1,
            "compUnifLie": false,
            "compDetect": 0.7894069760000002,
            "callBS": true,
            "playerTrialScore": 4,
            "oppTrialScore": 1,
            "playerTotalScore": 12,
            "oppTotalScore": -2,
            "waitTime": 2102.2779141038127,
            "responseTime": 17275,
            "catchQuestion": "What was the proportion of red to blue marbles from your opponent's perspective?",
            "catchKey": -1,
            "catchResponse": -1,
            "catchResponseTime": -1,
            "pseudoRound": false,
            "trialTime": 27734
        },
        {
            "exptPart": "trial",
            "trialNumber": 4,
            "roleCurrent": "bullshitDetector",
            "marblesSampled": 10,
            "asymm": false,
            "probBullshitterRed": 0.2,
            "probBullshitDetectorRed": 0.2,
            "probGlobal": 0.2,
            "drawnRed": 3,
            "reportedDrawn": 2,
            "compLie": -1,
            "compUnifLie": false,
            "compDetect": 0.7894069760000002,
            "callBS": false,
            "playerTrialScore": 8,
            "oppTrialScore": 2,
            "playerTotalScore": 20,
            "oppTotalScore": 0,
            "waitTime": 6973.134638082001,
            "responseTime": 10726,
            "catchQuestion": "How many red marbles did your opponent report drawing?",
            "catchKey": 2,
            "catchResponse": 8,
            "catchResponseTime": 6503,
            "pseudoRound": true,
            "trialTime": 31944
        },
        {
            "exptPart": "trial",
            "trialNumber": 5,
            "roleCurrent": "bullshitter",
            "marblesSampled": 10,
            "asymm": true,
            "probBullshitterRed": 0.2,
            "probBullshitDetectorRed": 0.5,
            "probGlobal": 0.21875,
            "drawnRed": 4,
            "reportedDrawn": 5,
            "compLie": -1,
            "compUnifLie": false,
            "compDetect": 0.5,
            "callBS": false,
            "playerTrialScore": 5,
            "oppTrialScore": 5,
            "playerTotalScore": 25,
            "oppTotalScore": 5,
            "waitTime": 2382.356959931417,
            "responseTime": 11455,
            "catchQuestion": "How many red marbles did your opponent report drawing?",
            "catchKey": -1,
            "catchResponse": -1,
            "catchResponseTime": -1,
            "pseudoRound": false,
            "trialTime": 24041
        },
        {
            "exptPart": "trial",
            "trialNumber": 6,
            "roleCurrent": "bullshitDetector",
            "marblesSampled": 10,
            "asymm": true,
            "probBullshitterRed": 0.2,
            "probBullshitDetectorRed": 0.8,
            "probGlobal": 0.2375,
            "drawnRed": 3,
            "reportedDrawn": 9,
            "compLie": 9,
            "compUnifLie": false,
            "compDetect": -1,
            "callBS": false,
            "playerTrialScore": 1,
            "oppTrialScore": 9,
            "playerTotalScore": 26,
            "oppTotalScore": 14,
            "waitTime": 6914.245356064942,
            "responseTime": 8350,
            "catchQuestion": "How many red marbles did your opponent report drawing?",
            "catchKey": -1,
            "catchResponse": -1,
            "catchResponseTime": -1,
            "pseudoRound": false,
            "trialTime": 19289
        },
        {
            "exptPart": "trial",
            "trialNumber": 7,
            "roleCurrent": "bullshitter",
            "marblesSampled": 10,
            "asymm": true,
            "probBullshitterRed": 0.2,
            "probBullshitDetectorRed": 0.8,
            "probGlobal": 0.2375,
            "drawnRed": 0,
            "reportedDrawn": 0,
            "compLie": -1,
            "compUnifLie": false,
            "compDetect": -0.12419025919999997,
            "callBS": false,
            "playerTrialScore": 0,
            "oppTrialScore": 10,
            "playerTotalScore": 26,
            "oppTotalScore": 24,
            "waitTime": 2206.8664276221552,
            "responseTime": 110072,
            "catchQuestion": "How many red marbles did your opponent report drawing?",
            "catchKey": -1,
            "catchResponse": -1,
            "catchResponseTime": -1,
            "pseudoRound": false,
            "trialTime": 118624
        },
        {
            "exptPart": "trial",
            "trialNumber": 8,
            "roleCurrent": "bullshitDetector",
            "marblesSampled": 10,
            "asymm": true,
            "probBullshitterRed": 0.8,
            "probBullshitDetectorRed": 0.2,
            "probGlobal": 0.7625,
            "drawnRed": 9,
            "reportedDrawn": 8,
            "compLie": -1,
            "compUnifLie": false,
            "compDetect": -0.12419025919999997,
            "callBS": false,
            "playerTrialScore": 2,
            "oppTrialScore": 8,
            "playerTotalScore": 28,
            "oppTotalScore": 32,
            "waitTime": 6322.643989172793,
            "responseTime": 14830,
            "catchQuestion": "How many red marbles did your opponent report drawing?",
            "catchKey": 8,
            "catchResponse": 8,
            "catchResponseTime": 5809,
            "pseudoRound": true,
            "trialTime": 30003
        },
        {
            "exptPart": "trial",
            "trialNumber": 9,
            "roleCurrent": "bullshitter",
            "marblesSampled": 10,
            "asymm": true,
            "probBullshitterRed": 0.5,
            "probBullshitDetectorRed": 0.8,
            "probGlobal": 0.51875,
            "drawnRed": 4,
            "reportedDrawn": 6,
            "compLie": -1,
            "compUnifLie": false,
            "compDetect": -0.0033164800000000383,
            "callBS": false,
            "playerTrialScore": 6,
            "oppTrialScore": 4,
            "playerTotalScore": 34,
            "oppTotalScore": 36,
            "waitTime": 2342.590735873704,
            "responseTime": 9874,
            "catchQuestion": "How many red marbles did your opponent report drawing?",
            "catchKey": -1,
            "catchResponse": -1,
            "catchResponseTime": -1,
            "pseudoRound": true,
            "trialTime": 18250
        },
        {
            "exptPart": "trial",
            "trialNumber": 10,
            "roleCurrent": "bullshitDetector",
            "marblesSampled": 10,
            "asymm": true,
            "probBullshitterRed": 0.8,
            "probBullshitDetectorRed": 0.5,
            "probGlobal": 0.78125,
            "drawnRed": 7,
            "reportedDrawn": 7,
            "compLie": 4,
            "compUnifLie": false,
            "compDetect": -1,
            "callBS": false,
            "playerTrialScore": 3,
            "oppTrialScore": 7,
            "playerTotalScore": 37,
            "oppTotalScore": 43,
            "waitTime": 5179.2354737942715,
            "responseTime": 11542,
            "catchQuestion": "How many red marbles did your opponent report drawing?",
            "catchKey": -1,
            "catchResponse": -1,
            "catchResponseTime": -1,
            "pseudoRound": false,
            "trialTime": 22418
        },
        {
            "exptPart": "trial",
            "trialNumber": 11,
            "roleCurrent": "bullshitter",
            "marblesSampled": 10,
            "asymm": true,
            "probBullshitterRed": 0.8,
            "probBullshitDetectorRed": 0.2,
            "probGlobal": 0.7625,
            "drawnRed": 6,
            "reportedDrawn": 6,
            "compLie": -1,
            "compUnifLie": false,
            "compDetect": 0.8213361152000002,
            "callBS": true,
            "playerTrialScore": 6,
            "oppTrialScore": -1,
            "playerTotalScore": 43,
            "oppTotalScore": 42,
            "waitTime": 2596.943246313383,
            "responseTime": 17584,
            "catchQuestion": "How many red marbles did your opponent report drawing?",
            "catchKey": -1,
            "catchResponse": -1,
            "catchResponseTime": -1,
            "pseudoRound": false,
            "trialTime": 27098
        },
        {
            "exptPart": "trial",
            "trialNumber": 12,
            "roleCurrent": "bullshitDetector",
            "marblesSampled": 10,
            "asymm": false,
            "probBullshitterRed": 0.5,
            "probBullshitDetectorRed": 0.5,
            "probGlobal": 0.5,
            "drawnRed": 6,
            "reportedDrawn": 7,
            "compLie": -1,
            "compUnifLie": false,
            "compDetect": 0.8213361152000002,
            "callBS": false,
            "playerTrialScore": 3,
            "oppTrialScore": 7,
            "playerTotalScore": 46,
            "oppTotalScore": 49,
            "waitTime": 5341.102474765481,
            "responseTime": 12953,
            "catchQuestion": "What was the proportion of red to blue marbles from your opponent's perspective?",
            "catchKey": "NA",
            "catchResponse": "76",
            "catchResponseTime": 7929,
            "pseudoRound": true,
            "trialTime": 32341
        },
        {
            "exptPart": "trial",
            "trialNumber": 13,
            "roleCurrent": "bullshitter",
            "marblesSampled": 10,
            "asymm": true,
            "probBullshitterRed": 0.5,
            "probBullshitDetectorRed": 0.2,
            "probGlobal": 0.48125,
            "drawnRed": 5,
            "reportedDrawn": 5,
            "compLie": -1,
            "compUnifLie": false,
            "compDetect": 0.8158310912000002,
            "callBS": false,
            "playerTrialScore": 5,
            "oppTrialScore": 5,
            "playerTotalScore": 51,
            "oppTotalScore": 54,
            "waitTime": 2185.7363844029696,
            "responseTime": 9377,
            "catchQuestion": "What was the proportion of red to blue marbles from your opponent's perspective?",
            "catchKey": -1,
            "catchResponse": -1,
            "catchResponseTime": -1,
            "pseudoRound": false,
            "trialTime": 20827
        },
        {
            "exptPart": "trial",
            "trialNumber": 14,
            "roleCurrent": "bullshitDetector",
            "marblesSampled": 10,
            "asymm": true,
            "probBullshitterRed": 0.5,
            "probBullshitDetectorRed": 0.8,
            "probGlobal": 0.51875,
            "drawnRed": 4,
            "reportedDrawn": 7,
            "compLie": 7,
            "compUnifLie": false,
            "compDetect": -1,
            "callBS": true,
            "playerTrialScore": 5,
            "oppTrialScore": -5,
            "playerTotalScore": 56,
            "oppTotalScore": 49,
            "waitTime": 6035.1019232900435,
            "responseTime": 8079,
            "catchQuestion": "What was the proportion of red to blue marbles from your perspective?",
            "catchKey": 80,
            "catchResponse": "66",
            "catchResponseTime": 7370,
            "pseudoRound": false,
            "trialTime": 27360
        },
        {
            "exptPart": "trial",
            "trialNumber": 15,
            "roleCurrent": "bullshitter",
            "marblesSampled": 10,
            "asymm": true,
            "probBullshitterRed": 0.8,
            "probBullshitDetectorRed": 0.2,
            "probGlobal": 0.7625,
            "drawnRed": 10,
            "reportedDrawn": 10,
            "compLie": -1,
            "compUnifLie": false,
            "compDetect": 0.8222004736,
            "callBS": true,
            "playerTrialScore": 10,
            "oppTrialScore": -5,
            "playerTotalScore": 66,
            "oppTotalScore": 44,
            "waitTime": 2367.6421084914095,
            "responseTime": 5608,
            "catchQuestion": "How many red marbles did you actually draw?",
            "catchKey": 10,
            "catchResponse": 10,
            "catchResponseTime": 6012,
            "pseudoRound": false,
            "trialTime": 25812
        },
        {
            "exptPart": "trial",
            "trialNumber": 16,
            "roleCurrent": "bullshitDetector",
            "marblesSampled": 10,
            "asymm": true,
            "probBullshitterRed": 0.5,
            "probBullshitDetectorRed": 0.8,
            "probGlobal": 0.51875,
            "drawnRed": 5,
            "reportedDrawn": 6,
            "compLie": 6,
            "compUnifLie": false,
            "compDetect": -1,
            "callBS": false,
            "playerTrialScore": 4,
            "oppTrialScore": 6,
            "playerTotalScore": 70,
            "oppTotalScore": 50,
            "waitTime": 5295.965261256737,
            "responseTime": 2827,
            "catchQuestion": "How many red marbles did you actually draw?",
            "catchKey": -1,
            "catchResponse": -1,
            "catchResponseTime": -1,
            "pseudoRound": false,
            "trialTime": 11231
        },
        {
            "exptPart": "trial",
            "trialNumber": 17,
            "roleCurrent": "bullshitter",
            "marblesSampled": 10,
            "asymm": true,
            "probBullshitterRed": 0.2,
            "probBullshitDetectorRed": 0.5,
            "probGlobal": 0.21875,
            "drawnRed": 2,
            "reportedDrawn": 4,
            "compLie": -1,
            "compUnifLie": false,
            "compDetect": 0.25390625,
            "callBS": false,
            "playerTrialScore": 4,
            "oppTrialScore": 6,
            "playerTotalScore": 74,
            "oppTotalScore": 56,
            "waitTime": 3161.413557676442,
            "responseTime": 8904,
            "catchQuestion": "How many red marbles did you actually draw?",
            "catchKey": -1,
            "catchResponse": -1,
            "catchResponseTime": -1,
            "pseudoRound": true,
            "trialTime": 18494
        },
        {
            "exptPart": "trial",
            "trialNumber": 18,
            "roleCurrent": "bullshitDetector",
            "marblesSampled": 10,
            "asymm": true,
            "probBullshitterRed": 0.8,
            "probBullshitDetectorRed": 0.2,
            "probGlobal": 0.7625,
            "drawnRed": 8,
            "reportedDrawn": 8,
            "compLie": 2,
            "compUnifLie": false,
            "compDetect": -1,
            "callBS": false,
            "playerTrialScore": 2,
            "oppTrialScore": 8,
            "playerTotalScore": 76,
            "oppTotalScore": 64,
            "waitTime": 5408.531227386016,
            "responseTime": 7421,
            "catchQuestion": "How many red marbles did you actually draw?",
            "catchKey": -1,
            "catchResponse": -1,
            "catchResponseTime": -1,
            "pseudoRound": false,
            "trialTime": 17265
        },
        {
            "exptPart": "trial",
            "trialNumber": 19,
            "roleCurrent": "bullshitter",
            "marblesSampled": 10,
            "asymm": true,
            "probBullshitterRed": 0.8,
            "probBullshitDetectorRed": 0.2,
            "probGlobal": 0.7625,
            "drawnRed": 8,
            "reportedDrawn": 8,
            "compLie": -1,
            "compUnifLie": false,
            "compDetect": 0.8221962752000002,
            "callBS": true,
            "playerTrialScore": 8,
            "oppTrialScore": -3,
            "playerTotalScore": 84,
            "oppTotalScore": 61,
            "waitTime": 2420.5523364990136,
            "responseTime": 7944,
            "catchQuestion": "How many red marbles did you actually draw?",
            "catchKey": -1,
            "catchResponse": -1,
            "catchResponseTime": -1,
            "pseudoRound": false,
            "trialTime": 16200
        },
        {
            "exptPart": "trial",
            "trialNumber": 20,
            "roleCurrent": "bullshitDetector",
            "marblesSampled": 10,
            "asymm": false,
            "probBullshitterRed": 0.2,
            "probBullshitDetectorRed": 0.2,
            "probGlobal": 0.2,
            "drawnRed": 2,
            "reportedDrawn": 3,
            "compLie": 3,
            "compUnifLie": false,
            "compDetect": -1,
            "callBS": false,
            "playerTrialScore": 7,
            "oppTrialScore": 3,
            "playerTotalScore": 91,
            "oppTotalScore": 64,
            "waitTime": 7261.3955530439525,
            "responseTime": 6296,
            "catchQuestion": "How many red marbles did you actually draw?",
            "catchKey": -1,
            "catchResponse": -1,
            "catchResponseTime": -1,
            "pseudoRound": false,
            "trialTime": 19206
        },
        {
            "exptPart": "trial",
            "trialNumber": 21,
            "roleCurrent": "bullshitter",
            "marblesSampled": 10,
            "asymm": true,
            "probBullshitterRed": 0.2,
            "probBullshitDetectorRed": 0.5,
            "probGlobal": 0.21875,
            "drawnRed": 0,
            "reportedDrawn": 6,
            "compLie": -1,
            "compUnifLie": false,
            "compDetect": 0.705078125,
            "callBS": true,
            "playerTrialScore": -5,
            "oppTrialScore": 5,
            "playerTotalScore": 86,
            "oppTotalScore": 69,
            "waitTime": 2989.581328194362,
            "responseTime": 8053,
            "catchQuestion": "How many red marbles did you actually draw?",
            "catchKey": 0,
            "catchResponse": 0,
            "catchResponseTime": 3180,
            "pseudoRound": false,
            "trialTime": 20048
        },
        {
            "exptPart": "trial",
            "trialNumber": 22,
            "roleCurrent": "bullshitDetector",
            "marblesSampled": 10,
            "asymm": true,
            "probBullshitterRed": 0.2,
            "probBullshitDetectorRed": 0.8,
            "probGlobal": 0.2375,
            "drawnRed": 2,
            "reportedDrawn": 9,
            "compLie": -1,
            "compUnifLie": false,
            "compDetect": 0.705078125,
            "callBS": true,
            "playerTrialScore": 5,
            "oppTrialScore": -5,
            "playerTotalScore": 91,
            "oppTotalScore": 64,
            "waitTime": 7156.64515114637,
            "responseTime": 8652,
            "catchQuestion": "How many red marbles did you actually draw?",
            "catchKey": -1,
            "catchResponse": -1,
            "catchResponseTime": -1,
            "pseudoRound": true,
            "trialTime": 18942
        },
        {
            "exptPart": "trial",
            "trialNumber": 23,
            "roleCurrent": "bullshitter",
            "marblesSampled": 10,
            "asymm": true,
            "probBullshitterRed": 0.5,
            "probBullshitDetectorRed": 0.8,
            "probGlobal": 0.51875,
            "drawnRed": 4,
            "reportedDrawn": 4,
            "compLie": -1,
            "compUnifLie": false,
            "compDetect": -0.11782097919999997,
            "callBS": false,
            "playerTrialScore": 4,
            "oppTrialScore": 6,
            "playerTotalScore": 95,
            "oppTotalScore": 70,
            "waitTime": 2445.232510655108,
            "responseTime": 5920,
            "catchQuestion": "How many red marbles did you actually draw?",
            "catchKey": -1,
            "catchResponse": -1,
            "catchResponseTime": -1,
            "pseudoRound": false,
            "trialTime": 13574
        },
        {
            "exptPart": "trial",
            "trialNumber": 24,
            "roleCurrent": "bullshitDetector",
            "marblesSampled": 10,
            "asymm": false,
            "probBullshitterRed": 0.8,
            "probBullshitDetectorRed": 0.8,
            "probGlobal": 0.8,
            "drawnRed": 7,
            "reportedDrawn": 8,
            "compLie": 8,
            "compUnifLie": false,
            "compDetect": -1,
            "callBS": false,
            "playerTrialScore": 2,
            "oppTrialScore": 8,
            "playerTotalScore": 97,
            "oppTotalScore": 78,
            "waitTime": 5305.668487853401,
            "responseTime": 7694,
            "catchQuestion": "How many red marbles did you actually draw?",
            "catchKey": -1,
            "catchResponse": -1,
            "catchResponseTime": -1,
            "pseudoRound": false,
            "trialTime": 15231
        },
        {
            "exptPart": "trial",
            "trialNumber": 25,
            "roleCurrent": "bullshitter",
            "marblesSampled": 10,
            "asymm": true,
            "probBullshitterRed": 0.8,
            "probBullshitDetectorRed": 0.5,
            "probGlobal": 0.78125,
            "drawnRed": 6,
            "reportedDrawn": 6,
            "compLie": -1,
            "compUnifLie": false,
            "compDetect": 0.705078125,
            "callBS": true,
            "playerTrialScore": 6,
            "oppTrialScore": -1,
            "playerTotalScore": 103,
            "oppTotalScore": 77,
            "waitTime": 2166.5790528792872,
            "responseTime": 6881,
            "catchQuestion": "How many red marbles did you actually draw?",
            "catchKey": -1,
            "catchResponse": -1,
            "catchResponseTime": -1,
            "pseudoRound": true,
            "trialTime": 20604
        },
        {
            "exptPart": "trial",
            "trialNumber": 26,
            "roleCurrent": "bullshitDetector",
            "marblesSampled": 10,
            "asymm": true,
            "probBullshitterRed": 0.2,
            "probBullshitDetectorRed": 0.8,
            "probGlobal": 0.2375,
            "drawnRed": 1,
            "reportedDrawn": 9,
            "compLie": 9,
            "compUnifLie": false,
            "compDetect": -1,
            "callBS": true,
            "playerTrialScore": 5,
            "oppTrialScore": -5,
            "playerTotalScore": 108,
            "oppTotalScore": 72,
            "waitTime": 5557.232617526994,
            "responseTime": 3724,
            "catchQuestion": "How many red marbles did you actually draw?",
            "catchKey": -1,
            "catchResponse": -1,
            "catchResponseTime": -1,
            "pseudoRound": false,
            "trialTime": 12339
        },
        {
            "exptPart": "trial",
            "trialNumber": 27,
            "roleCurrent": "bullshitter",
            "marblesSampled": 10,
            "asymm": true,
            "probBullshitterRed": 0.5,
            "probBullshitDetectorRed": 0.8,
            "probGlobal": 0.51875,
            "drawnRed": 4,
            "reportedDrawn": 6,
            "compLie": -1,
            "compUnifLie": false,
            "compDetect": -0.0033164800000000383,
            "callBS": false,
            "playerTrialScore": 6,
            "oppTrialScore": 4,
            "playerTotalScore": 114,
            "oppTotalScore": 76,
            "waitTime": 2385.8798648405264,
            "responseTime": 7655,
            "catchQuestion": "How many red marbles did you actually draw?",
            "catchKey": 4,
            "catchResponse": 4,
            "catchResponseTime": 3585,
            "pseudoRound": false,
            "trialTime": 19297
        },
        {
            "exptPart": "trial",
            "trialNumber": 28,
            "roleCurrent": "bullshitDetector",
            "marblesSampled": 10,
            "asymm": true,
            "probBullshitterRed": 0.5,
            "probBullshitDetectorRed": 0.2,
            "probGlobal": 0.48125,
            "drawnRed": 5,
            "reportedDrawn": 5,
            "compLie": -1,
            "compUnifLie": false,
            "compDetect": -0.0033164800000000383,
            "callBS": false,
            "playerTrialScore": 5,
            "oppTrialScore": 5,
            "playerTotalScore": 119,
            "oppTotalScore": 81,
            "waitTime": 6361.973648176194,
            "responseTime": 1625,
            "catchQuestion": "How many red marbles did you actually draw?",
            "catchKey": -1,
            "catchResponse": -1,
            "catchResponseTime": -1,
            "pseudoRound": true,
            "trialTime": 10777
        },
        {
            "exptPart": "trial",
            "trialNumber": 29,
            "roleCurrent": "bullshitter",
            "marblesSampled": 10,
            "asymm": true,
            "probBullshitterRed": 0.2,
            "probBullshitDetectorRed": 0.8,
            "probGlobal": 0.2375,
            "drawnRed": 2,
            "reportedDrawn": 7,
            "compLie": -1,
            "compUnifLie": false,
            "compDetect": 0.1980101119999999,
            "callBS": false,
            "playerTrialScore": 7,
            "oppTrialScore": 3,
            "playerTotalScore": 126,
            "oppTotalScore": 84,
            "waitTime": 2909.814559165315,
            "responseTime": 6535,
            "catchQuestion": "How many red marbles did you actually draw?",
            "catchKey": -1,
            "catchResponse": -1,
            "catchResponseTime": -1,
            "pseudoRound": false,
            "trialTime": 15559
        },
        {
            "exptPart": "trial",
            "trialNumber": 30,
            "roleCurrent": "bullshitDetector",
            "marblesSampled": 10,
            "asymm": true,
            "probBullshitterRed": 0.8,
            "probBullshitDetectorRed": 0.5,
            "probGlobal": 0.78125,
            "drawnRed": 6,
            "reportedDrawn": 6,
            "compLie": 6,
            "compUnifLie": false,
            "compDetect": -1,
            "callBS": false,
            "playerTrialScore": 4,
            "oppTrialScore": 6,
            "playerTotalScore": 130,
            "oppTotalScore": 90,
            "waitTime": 5168.8822276689325,
            "responseTime": 2178,
            "catchQuestion": "How many red marbles did you actually draw?",
            "catchKey": -1,
            "catchResponse": -1,
            "catchResponseTime": -1,
            "pseudoRound": false,
            "trialTime": 13923
        },
        {
            "exptPart": "trial",
            "trialNumber": 31,
            "roleCurrent": "bullshitter",
            "marblesSampled": 10,
            "asymm": false,
            "probBullshitterRed": 0.8,
            "probBullshitDetectorRed": 0.8,
            "probGlobal": 0.8,
            "drawnRed": 6,
            "reportedDrawn": 6,
            "compLie": -1,
            "compUnifLie": false,
            "compDetect": -0.0033164800000000383,
            "callBS": false,
            "playerTrialScore": 6,
            "oppTrialScore": 4,
            "playerTotalScore": 136,
            "oppTotalScore": 94,
            "waitTime": 3060.8079756471234,
            "responseTime": 7401,
            "catchQuestion": "What was the proportion of red to blue marbles from your opponent's perspective?",
            "catchKey": 80,
            "catchResponse": "73",
            "catchResponseTime": 14810,
            "pseudoRound": false,
            "trialTime": 35158
        },
        {
            "exptPart": "trial",
            "trialNumber": 32,
            "roleCurrent": "bullshitDetector",
            "marblesSampled": 10,
            "asymm": true,
            "probBullshitterRed": 0.2,
            "probBullshitDetectorRed": 0.8,
            "probGlobal": 0.2375,
            "drawnRed": 1,
            "reportedDrawn": 8,
            "compLie": 8,
            "compUnifLie": false,
            "compDetect": -1,
            "callBS": true,
            "playerTrialScore": 5,
            "oppTrialScore": -5,
            "playerTotalScore": 141,
            "oppTotalScore": 89,
            "waitTime": 7087.702317870556,
            "responseTime": 12800,
            "catchQuestion": "What was the proportion of red to blue marbles from your opponent's perspective?",
            "catchKey": -1,
            "catchResponse": -1,
            "catchResponseTime": -1,
            "pseudoRound": false,
            "trialTime": 22117
        },
        {
            "exptPart": "trial",
            "trialNumber": 33,
            "roleCurrent": "bullshitter",
            "marblesSampled": 10,
            "asymm": true,
            "probBullshitterRed": 0.5,
            "probBullshitDetectorRed": 0.2,
            "probGlobal": 0.48125,
            "drawnRed": 7,
            "reportedDrawn": 7,
            "compLie": -1,
            "compUnifLie": false,
            "compDetect": 0.8221225472000001,
            "callBS": true,
            "playerTrialScore": 7,
            "oppTrialScore": -2,
            "playerTotalScore": 148,
            "oppTotalScore": 87,
            "waitTime": 2092.268197973337,
            "responseTime": 7771,
            "catchQuestion": "What was the proportion of red to blue marbles from your opponent's perspective?",
            "catchKey": -1,
            "catchResponse": -1,
            "catchResponseTime": -1,
            "pseudoRound": false,
            "trialTime": 15863
        },
        {
            "exptPart": "trial",
            "trialNumber": 34,
            "roleCurrent": "bullshitDetector",
            "marblesSampled": 10,
            "asymm": true,
            "probBullshitterRed": 0.8,
            "probBullshitDetectorRed": 0.2,
            "probGlobal": 0.7625,
            "drawnRed": 9,
            "reportedDrawn": 9,
            "compLie": 2,
            "compUnifLie": false,
            "compDetect": -1,
            "callBS": false,
            "playerTrialScore": 1,
            "oppTrialScore": 9,
            "playerTotalScore": 149,
            "oppTotalScore": 96,
            "waitTime": 7480.298923632793,
            "responseTime": 2805,
            "catchQuestion": "What was the proportion of red to blue marbles from your opponent's perspective?",
            "catchKey": -1,
            "catchResponse": -1,
            "catchResponseTime": -1,
            "pseudoRound": false,
            "trialTime": 12757
        },
        {
            "exptPart": "trial",
            "trialNumber": 35,
            "roleCurrent": "bullshitter",
            "marblesSampled": 10,
            "asymm": false,
            "probBullshitterRed": 0.8,
            "probBullshitDetectorRed": 0.8,
            "probGlobal": 0.8,
            "drawnRed": 8,
            "reportedDrawn": 8,
            "compLie": -1,
            "compUnifLie": false,
            "compDetect": 0.5,
            "callBS": false,
            "playerTrialScore": 8,
            "oppTrialScore": 2,
            "playerTotalScore": 157,
            "oppTotalScore": 98,
            "waitTime": 2334.164437442984,
            "responseTime": 4558,
            "catchQuestion": "What was the proportion of red to blue marbles from your opponent's perspective?",
            "catchKey": -1,
            "catchResponse": -1,
            "catchResponseTime": -1,
            "pseudoRound": false,
            "trialTime": 15776
        },
        {
            "exptPart": "trial",
            "trialNumber": 36,
            "roleCurrent": "bullshitDetector",
            "marblesSampled": 10,
            "asymm": true,
            "probBullshitterRed": 0.2,
            "probBullshitDetectorRed": 0.8,
            "probGlobal": 0.2375,
            "drawnRed": 3,
            "reportedDrawn": 6,
            "compLie": -1,
            "compUnifLie": false,
            "compDetect": 0.5,
            "callBS": false,
            "playerTrialScore": 4,
            "oppTrialScore": 6,
            "playerTotalScore": 161,
            "oppTotalScore": 104,
            "waitTime": 5648.750038529763,
            "responseTime": 2511,
            "catchQuestion": "What was the proportion of red to blue marbles from your opponent's perspective?",
            "catchKey": -1,
            "catchResponse": -1,
            "catchResponseTime": -1,
            "pseudoRound": true,
            "trialTime": 10708
        },
        {
            "exptPart": "trial",
            "trialNumber": 37,
            "roleCurrent": "bullshitter",
            "marblesSampled": 10,
            "asymm": false,
            "probBullshitterRed": 0.2,
            "probBullshitDetectorRed": 0.2,
            "probGlobal": 0.2,
            "drawnRed": 3,
            "reportedDrawn": 3,
            "compLie": -1,
            "compUnifLie": false,
            "compDetect": 0.7013265920000001,
            "callBS": true,
            "playerTrialScore": 3,
            "oppTrialScore": 2,
            "playerTotalScore": 164,
            "oppTotalScore": 106,
            "waitTime": 2405.8074619709614,
            "responseTime": 15449,
            "catchQuestion": "What was the proportion of red to blue marbles from your opponent's perspective?",
            "catchKey": -1,
            "catchResponse": -1,
            "catchResponseTime": -1,
            "pseudoRound": false,
            "trialTime": 23009
        },
        {
            "exptPart": "trial",
            "trialNumber": 38,
            "roleCurrent": "bullshitDetector",
            "marblesSampled": 10,
            "asymm": true,
            "probBullshitterRed": 0.8,
            "probBullshitDetectorRed": 0.2,
            "probGlobal": 0.7625,
            "drawnRed": 7,
            "reportedDrawn": 7,
            "compLie": 1,
            "compUnifLie": false,
            "compDetect": -1,
            "callBS": false,
            "playerTrialScore": 3,
            "oppTrialScore": 7,
            "playerTotalScore": 167,
            "oppTotalScore": 113,
            "waitTime": 7440.8577727388465,
            "responseTime": 3912,
            "catchQuestion": "What was the proportion of red to blue marbles from your opponent's perspective?",
            "catchKey": -1,
            "catchResponse": -1,
            "catchResponseTime": -1,
            "pseudoRound": false,
            "trialTime": 13228
        },
        {
            "exptPart": "trial",
            "trialNumber": 39,
            "roleCurrent": "bullshitter",
            "marblesSampled": 10,
            "asymm": false,
            "probBullshitterRed": 0.8,
            "probBullshitDetectorRed": 0.8,
            "probGlobal": 0.8,
            "drawnRed": 3,
            "reportedDrawn": 6,
            "compLie": -1,
            "compUnifLie": false,
            "compDetect": -0.0033164800000000383,
            "callBS": false,
            "playerTrialScore": 6,
            "oppTrialScore": 4,
            "playerTotalScore": 173,
            "oppTotalScore": 117,
            "waitTime": 2716.71659444065,
            "responseTime": 4727,
            "catchQuestion": "What was the proportion of red to blue marbles from your opponent's perspective?",
            "catchKey": -1,
            "catchResponse": -1,
            "catchResponseTime": -1,
            "pseudoRound": true,
            "trialTime": 13200
        },
        {
            "exptPart": "trial",
            "trialNumber": 40,
            "roleCurrent": "bullshitDetector",
            "marblesSampled": 10,
            "asymm": true,
            "probBullshitterRed": 0.2,
            "probBullshitDetectorRed": 0.8,
            "probGlobal": 0.2375,
            "drawnRed": 2,
            "reportedDrawn": 3,
            "compLie": -1,
            "compUnifLie": true,
            "compDetect": -0.0033164800000000383,
            "callBS": false,
            "playerTrialScore": 7,
            "oppTrialScore": 3,
            "playerTotalScore": 180,
            "oppTotalScore": 120,
            "waitTime": 6340.812322359419,
            "responseTime": 2514,
            "catchQuestion": "What was the proportion of red to blue marbles from your opponent's perspective?",
            "catchKey": "NA",
            "catchResponse": "36",
            "catchResponseTime": 7600,
            "pseudoRound": false,
            "trialTime": 23046
        },
        {
            "exptPart": "trial",
            "trialNumber": 41,
            "roleCurrent": "bullshitter",
            "marblesSampled": 10,
            "asymm": true,
            "probBullshitterRed": 0.2,
            "probBullshitDetectorRed": 0.8,
            "probGlobal": 0.2375,
            "drawnRed": 7,
            "reportedDrawn": 7,
            "compLie": -1,
            "compUnifLie": false,
            "compDetect": 0.1980101119999999,
            "callBS": false,
            "playerTrialScore": 7,
            "oppTrialScore": 3,
            "playerTotalScore": 187,
            "oppTotalScore": 123,
            "waitTime": 2564.828271452252,
            "responseTime": 5142,
            "catchQuestion": "What was the proportion of red to blue marbles from your opponent's perspective?",
            "catchKey": -1,
            "catchResponse": -1,
            "catchResponseTime": -1,
            "pseudoRound": true,
            "trialTime": 13543
        },
        {
            "exptPart": "trial",
            "trialNumber": 42,
            "roleCurrent": "bullshitDetector",
            "marblesSampled": 10,
            "asymm": false,
            "probBullshitterRed": 0.2,
            "probBullshitDetectorRed": 0.2,
            "probGlobal": 0.2,
            "drawnRed": 2,
            "reportedDrawn": 2,
            "compLie": 1,
            "compUnifLie": false,
            "compDetect": -1,
            "callBS": false,
            "playerTrialScore": 8,
            "oppTrialScore": 2,
            "playerTotalScore": 195,
            "oppTotalScore": 125,
            "waitTime": 6687.673105389075,
            "responseTime": 1704,
            "catchQuestion": "What was the proportion of red to blue marbles from your opponent's perspective?",
            "catchKey": -1,
            "catchResponse": -1,
            "catchResponseTime": -1,
            "pseudoRound": false,
            "trialTime": 11481
        },
        {
            "exptPart": "trial",
            "trialNumber": 43,
            "roleCurrent": "bullshitter",
            "marblesSampled": 10,
            "asymm": true,
            "probBullshitterRed": 0.2,
            "probBullshitDetectorRed": 0.8,
            "probGlobal": 0.2375,
            "drawnRed": 5,
            "reportedDrawn": 5,
            "compLie": -1,
            "compUnifLie": false,
            "compDetect": -0.091396864,
            "callBS": false,
            "playerTrialScore": 5,
            "oppTrialScore": 5,
            "playerTotalScore": 200,
            "oppTotalScore": 130,
            "waitTime": 3152.1457353388078,
            "responseTime": 4499,
            "catchQuestion": "What was the proportion of red to blue marbles from your opponent's perspective?",
            "catchKey": -1,
            "catchResponse": -1,
            "catchResponseTime": -1,
            "pseudoRound": false,
            "trialTime": 13526
        },
        {
            "exptPart": "trial",
            "trialNumber": 44,
            "roleCurrent": "bullshitDetector",
            "marblesSampled": 10,
            "asymm": false,
            "probBullshitterRed": 0.2,
            "probBullshitDetectorRed": 0.2,
            "probGlobal": 0.2,
            "drawnRed": 2,
            "reportedDrawn": 3,
            "compLie": 3,
            "compUnifLie": false,
            "compDetect": -1,
            "callBS": false,
            "playerTrialScore": 7,
            "oppTrialScore": 3,
            "playerTotalScore": 207,
            "oppTotalScore": 133,
            "waitTime": 5685.1999057828625,
            "responseTime": 1686,
            "catchQuestion": "What was the proportion of red to blue marbles from your opponent's perspective?",
            "catchKey": -1,
            "catchResponse": -1,
            "catchResponseTime": -1,
            "pseudoRound": false,
            "trialTime": 9503
        },
        {
            "exptPart": "trial",
            "trialNumber": 45,
            "roleCurrent": "bullshitter",
            "marblesSampled": 10,
            "asymm": false,
            "probBullshitterRed": 0.5,
            "probBullshitDetectorRed": 0.5,
            "probGlobal": 0.5,
            "drawnRed": 6,
            "reportedDrawn": 6,
            "compLie": -1,
            "compUnifLie": false,
            "compDetect": 0.705078125,
            "callBS": true,
            "playerTrialScore": 6,
            "oppTrialScore": -1,
            "playerTotalScore": 213,
            "oppTotalScore": 132,
            "waitTime": 2921.5482279130265,
            "responseTime": 7360,
            "catchQuestion": "What was the proportion of red to blue marbles from your opponent's perspective?",
            "catchKey": -1,
            "catchResponse": -1,
            "catchResponseTime": -1,
            "pseudoRound": false,
            "trialTime": 18323
        },
        {
            "exptPart": "trial",
            "trialNumber": 46,
            "roleCurrent": "bullshitDetector",
            "marblesSampled": 10,
            "asymm": true,
            "probBullshitterRed": 0.8,
            "probBullshitDetectorRed": 0.2,
            "probGlobal": 0.7625,
            "drawnRed": 6,
            "reportedDrawn": 6,
            "compLie": 3,
            "compUnifLie": false,
            "compDetect": -1,
            "callBS": false,
            "playerTrialScore": 4,
            "oppTrialScore": 6,
            "playerTotalScore": 217,
            "oppTotalScore": 138,
            "waitTime": 6811.6852719171675,
            "responseTime": 5068,
            "catchQuestion": "What was the proportion of red to blue marbles from your opponent's perspective?",
            "catchKey": -1,
            "catchResponse": -1,
            "catchResponseTime": -1,
            "pseudoRound": false,
            "trialTime": 18496
        },
        {
            "exptPart": "trial",
            "trialNumber": 47,
            "roleCurrent": "bullshitter",
            "marblesSampled": 10,
            "asymm": false,
            "probBullshitterRed": 0.2,
            "probBullshitDetectorRed": 0.2,
            "probGlobal": 0.2,
            "drawnRed": 1,
            "reportedDrawn": 2,
            "compLie": -1,
            "compUnifLie": false,
            "compDetect": 0.5,
            "callBS": false,
            "playerTrialScore": 2,
            "oppTrialScore": 8,
            "playerTotalScore": 219,
            "oppTotalScore": 146,
            "waitTime": 2122.662441842892,
            "responseTime": 4524,
            "catchQuestion": "What was the proportion of red to blue marbles from your opponent's perspective?",
            "catchKey": -1,
            "catchResponse": -1,
            "catchResponseTime": -1,
            "pseudoRound": true,
            "trialTime": 12298
        },
        {
            "exptPart": "trial",
            "trialNumber": 48,
            "roleCurrent": "bullshitDetector",
            "marblesSampled": 10,
            "asymm": true,
            "probBullshitterRed": 0.5,
            "probBullshitDetectorRed": 0.2,
            "probGlobal": 0.48125,
            "drawnRed": 6,
            "reportedDrawn": 6,
            "compLie": 0,
            "compUnifLie": false,
            "compDetect": -1,
            "callBS": false,
            "playerTrialScore": 4,
            "oppTrialScore": 6,
            "playerTotalScore": 223,
            "oppTotalScore": 152,
            "waitTime": 7192.608356354554,
            "responseTime": 1566,
            "catchQuestion": "What was the proportion of red to blue marbles from your opponent's perspective?",
            "catchKey": -1,
            "catchResponse": -1,
            "catchResponseTime": -1,
            "pseudoRound": false,
            "trialTime": 10991
        },
        {
            "exptPart": "trial",
            "trialNumber": 49,
            "roleCurrent": "bullshitter",
            "marblesSampled": 10,
            "asymm": true,
            "probBullshitterRed": 0.5,
            "probBullshitDetectorRed": 0.8,
            "probGlobal": 0.51875,
            "drawnRed": 0,
            "reportedDrawn": 6,
            "compLie": -1,
            "compUnifLie": false,
            "compDetect": -0.0033164800000000383,
            "callBS": false,
            "playerTrialScore": 6,
            "oppTrialScore": 4,
            "playerTotalScore": 229,
            "oppTotalScore": 156,
            "waitTime": 2295.723046954953,
            "responseTime": 6302,
            "catchQuestion": "What was the proportion of red to blue marbles from your opponent's perspective?",
            "catchKey": -1,
            "catchResponse": -1,
            "catchResponseTime": -1,
            "pseudoRound": true,
            "trialTime": 13574
        },
        {
            "exptPart": "trial",
            "trialNumber": 50,
            "roleCurrent": "bullshitDetector",
            "marblesSampled": 10,
            "asymm": false,
            "probBullshitterRed": 0.2,
            "probBullshitDetectorRed": 0.2,
            "probGlobal": 0.2,
            "drawnRed": 0,
            "reportedDrawn": 1,
            "compLie": 1,
            "compUnifLie": false,
            "compDetect": -1,
            "callBS": true,
            "playerTrialScore": 5,
            "oppTrialScore": -5,
            "playerTotalScore": 234,
            "oppTotalScore": 151,
            "waitTime": 6818.236167399065,
            "responseTime": 4728,
            "catchQuestion": "How many red marbles did your opponent report drawing?",
            "catchKey": 1,
            "catchResponse": 9,
            "catchResponseTime": 6400,
            "pseudoRound": false,
            "trialTime": 28907
        },
        {
            "exptPart": "trial",
            "trialNumber": 51,
            "roleCurrent": "bullshitter",
            "marblesSampled": 10,
            "asymm": true,
            "probBullshitterRed": 0.2,
            "probBullshitDetectorRed": 0.5,
            "probGlobal": 0.21875,
            "drawnRed": 4,
            "reportedDrawn": 4,
            "compLie": -1,
            "compUnifLie": false,
            "compDetect": 0.25390625,
            "callBS": true,
            "playerTrialScore": 4,
            "oppTrialScore": 1,
            "playerTotalScore": 238,
            "oppTotalScore": 152,
            "waitTime": 2160.156262554828,
            "responseTime": 5179,
            "catchQuestion": "How many red marbles did your opponent report drawing?",
            "catchKey": -1,
            "catchResponse": -1,
            "catchResponseTime": -1,
            "pseudoRound": false,
            "trialTime": 14561
        },
        {
            "exptPart": "trial",
            "trialNumber": 52,
            "roleCurrent": "bullshitDetector",
            "marblesSampled": 10,
            "asymm": true,
            "probBullshitterRed": 0.5,
            "probBullshitDetectorRed": 0.2,
            "probGlobal": 0.48125,
            "drawnRed": 3,
            "reportedDrawn": 0,
            "compLie": -1,
            "compUnifLie": false,
            "compDetect": 0.25390625,
            "callBS": false,
            "playerTrialScore": 10,
            "oppTrialScore": 0,
            "playerTotalScore": 248,
            "oppTotalScore": 152,
            "waitTime": 5564.947534184263,
            "responseTime": 2402,
            "catchQuestion": "How many red marbles did your opponent report drawing?",
            "catchKey": -1,
            "catchResponse": -1,
            "catchResponseTime": -1,
            "pseudoRound": true,
            "trialTime": 10092
        },
        {
            "exptPart": "trial",
            "trialNumber": 53,
            "roleCurrent": "bullshitter",
            "marblesSampled": 10,
            "asymm": true,
            "probBullshitterRed": 0.2,
            "probBullshitDetectorRed": 0.8,
            "probGlobal": 0.2375,
            "drawnRed": 2,
            "reportedDrawn": 6,
            "compLie": -1,
            "compUnifLie": false,
            "compDetect": -0.0033164800000000383,
            "callBS": false,
            "playerTrialScore": 6,
            "oppTrialScore": 4,
            "playerTotalScore": 254,
            "oppTotalScore": 156,
            "waitTime": 2461.4500347119197,
            "responseTime": 13015,
            "catchQuestion": "How many red marbles did your opponent report drawing?",
            "catchKey": -1,
            "catchResponse": -1,
            "catchResponseTime": -1,
            "pseudoRound": false,
            "trialTime": 21350
        },
        {
            "exptPart": "trial",
            "trialNumber": 54,
            "roleCurrent": "bullshitDetector",
            "marblesSampled": 10,
            "asymm": true,
            "probBullshitterRed": 0.5,
            "probBullshitDetectorRed": 0.8,
            "probGlobal": 0.51875,
            "drawnRed": 4,
            "reportedDrawn": 5,
            "compLie": -1,
            "compUnifLie": true,
            "compDetect": -0.0033164800000000383,
            "callBS": false,
            "playerTrialScore": 5,
            "oppTrialScore": 5,
            "playerTotalScore": 259,
            "oppTotalScore": 161,
            "waitTime": 6912.282858857854,
            "responseTime": 1728,
            "catchQuestion": "How many red marbles did your opponent report drawing?",
            "catchKey": -1,
            "catchResponse": -1,
            "catchResponseTime": -1,
            "pseudoRound": false,
            "trialTime": 12152
        },
        {
            "exptPart": "trial",
            "trialNumber": 55,
            "roleCurrent": "bullshitter",
            "marblesSampled": 10,
            "asymm": true,
            "probBullshitterRed": 0.5,
            "probBullshitDetectorRed": 0.8,
            "probGlobal": 0.51875,
            "drawnRed": 3,
            "reportedDrawn": 7,
            "compLie": -1,
            "compUnifLie": false,
            "compDetect": 0.1980101119999999,
            "callBS": false,
            "playerTrialScore": 7,
            "oppTrialScore": 3,
            "playerTotalScore": 266,
            "oppTotalScore": 164,
            "waitTime": 2581.046973360856,
            "responseTime": 6939,
            "catchQuestion": "How many red marbles did your opponent report drawing?",
            "catchKey": -1,
            "catchResponse": -1,
            "catchResponseTime": -1,
            "pseudoRound": false,
            "trialTime": 21084
        },
        {
            "exptPart": "trial",
            "trialNumber": 56,
            "roleCurrent": "bullshitDetector",
            "marblesSampled": 10,
            "asymm": false,
            "probBullshitterRed": 0.2,
            "probBullshitDetectorRed": 0.2,
            "probGlobal": 0.2,
            "drawnRed": 3,
            "reportedDrawn": 4,
            "compLie": -1,
            "compUnifLie": false,
            "compDetect": 0.1980101119999999,
            "callBS": false,
            "playerTrialScore": 6,
            "oppTrialScore": 4,
            "playerTotalScore": 272,
            "oppTotalScore": 168,
            "waitTime": 6465.484161382158,
            "responseTime": 3031,
            "catchQuestion": "How many red marbles did your opponent report drawing?",
            "catchKey": -1,
            "catchResponse": -1,
            "catchResponseTime": -1,
            "pseudoRound": true,
            "trialTime": 11987
        },
        {
            "exptPart": "trial",
            "trialNumber": 57,
            "roleCurrent": "bullshitter",
            "marblesSampled": 10,
            "asymm": false,
            "probBullshitterRed": 0.2,
            "probBullshitDetectorRed": 0.2,
            "probGlobal": 0.2,
            "drawnRed": 1,
            "reportedDrawn": 1,
            "compLie": -1,
            "compUnifLie": false,
            "compDetect": 0.1980101119999998,
            "callBS": false,
            "playerTrialScore": 1,
            "oppTrialScore": 9,
            "playerTotalScore": 273,
            "oppTotalScore": 177,
            "waitTime": 2943.92750443935,
            "responseTime": 5555,
            "catchQuestion": "How many red marbles did your opponent report drawing?",
            "catchKey": -1,
            "catchResponse": -1,
            "catchResponseTime": -1,
            "pseudoRound": false,
            "trialTime": 13059
        },
        {
            "exptPart": "trial",
            "trialNumber": 58,
            "roleCurrent": "bullshitDetector",
            "marblesSampled": 10,
            "asymm": true,
            "probBullshitterRed": 0.2,
            "probBullshitDetectorRed": 0.8,
            "probGlobal": 0.2375,
            "drawnRed": 3,
            "reportedDrawn": 10,
            "compLie": 10,
            "compUnifLie": false,
            "compDetect": -1,
            "callBS": false,
            "playerTrialScore": 0,
            "oppTrialScore": 10,
            "playerTotalScore": 273,
            "oppTotalScore": 187,
            "waitTime": 5380.304739058821,
            "responseTime": 5551,
            "catchQuestion": "How many red marbles did your opponent report drawing?",
            "catchKey": -1,
            "catchResponse": -1,
            "catchResponseTime": -1,
            "pseudoRound": false,
            "trialTime": 17569
        },
        {
            "exptPart": "trial",
            "trialNumber": 59,
            "roleCurrent": "bullshitter",
            "marblesSampled": 10,
            "asymm": false,
            "probBullshitterRed": 0.5,
            "probBullshitDetectorRed": 0.5,
            "probGlobal": 0.5,
            "drawnRed": 9,
            "reportedDrawn": 9,
            "compLie": -1,
            "compUnifLie": false,
            "compDetect": 0.8759765625,
            "callBS": false,
            "playerTrialScore": 9,
            "oppTrialScore": 1,
            "playerTotalScore": 282,
            "oppTotalScore": 188,
            "waitTime": 3198.5353970616234,
            "responseTime": 3677,
            "catchQuestion": "How many red marbles did your opponent report drawing?",
            "catchKey": -1,
            "catchResponse": -1,
            "catchResponseTime": -1,
            "pseudoRound": true,
            "trialTime": 13013
        },
        {
            "exptPart": "trial",
            "trialNumber": 60,
            "roleCurrent": "bullshitDetector",
            "marblesSampled": 10,
            "asymm": false,
            "probBullshitterRed": 0.2,
            "probBullshitDetectorRed": 0.2,
            "probGlobal": 0.2,
            "drawnRed": 1,
            "reportedDrawn": 3,
            "compLie": 3,
            "compUnifLie": false,
            "compDetect": -1,
            "callBS": false,
            "playerTrialScore": 7,
            "oppTrialScore": 3,
            "playerTotalScore": 289,
            "oppTotalScore": 191,
            "waitTime": 6048.492394305629,
            "responseTime": 2403,
            "catchQuestion": "How many red marbles did your opponent report drawing?",
            "catchKey": -1,
            "catchResponse": -1,
            "catchResponseTime": -1,
            "pseudoRound": false,
            "trialTime": 15973
        },
        {
            "exptPart": "trial",
            "trialNumber": 61,
            "roleCurrent": "bullshitter",
            "marblesSampled": 10,
            "asymm": false,
            "probBullshitterRed": 0.8,
            "probBullshitDetectorRed": 0.8,
            "probGlobal": 0.8,
            "drawnRed": 6,
            "reportedDrawn": 6,
            "compLie": -1,
            "compUnifLie": false,
            "compDetect": -0.0033164800000000383,
            "callBS": false,
            "playerTrialScore": 6,
            "oppTrialScore": 4,
            "playerTotalScore": 295,
            "oppTotalScore": 195,
            "waitTime": 3107.659131001232,
            "responseTime": 5563,
            "catchQuestion": "How many red marbles did your opponent report drawing?",
            "catchKey": -1,
            "catchResponse": -1,
            "catchResponseTime": -1,
            "pseudoRound": false,
            "trialTime": 13397
        },
        {
            "exptPart": "trial",
            "trialNumber": 62,
            "roleCurrent": "bullshitDetector",
            "marblesSampled": 10,
            "asymm": false,
            "probBullshitterRed": 0.8,
            "probBullshitDetectorRed": 0.8,
            "probGlobal": 0.8,
            "drawnRed": 10,
            "reportedDrawn": 10,
            "compLie": 6,
            "compUnifLie": false,
            "compDetect": -1,
            "callBS": false,
            "playerTrialScore": 0,
            "oppTrialScore": 10,
            "playerTotalScore": 295,
            "oppTotalScore": 205,
            "waitTime": 6074.574611483991,
            "responseTime": 7538,
            "catchQuestion": "How many red marbles did your opponent report drawing?",
            "catchKey": -1,
            "catchResponse": -1,
            "catchResponseTime": -1,
            "pseudoRound": false,
            "trialTime": 15755
        },
        {
            "exptPart": "trial",
            "trialNumber": 63,
            "roleCurrent": "bullshitter",
            "marblesSampled": 10,
            "asymm": false,
            "probBullshitterRed": 0.8,
            "probBullshitDetectorRed": 0.8,
            "probGlobal": 0.8,
            "drawnRed": 8,
            "reportedDrawn": 8,
            "compLie": -1,
            "compUnifLie": false,
            "compDetect": 0.5,
            "callBS": false,
            "playerTrialScore": 8,
            "oppTrialScore": 2,
            "playerTotalScore": 303,
            "oppTotalScore": 207,
            "waitTime": 2637.1187652111416,
            "responseTime": 4225,
            "catchQuestion": "How many red marbles did your opponent report drawing?",
            "catchKey": -1,
            "catchResponse": -1,
            "catchResponseTime": -1,
            "pseudoRound": false,
            "trialTime": 16389
        },
        {
            "exptPart": "trial",
            "trialNumber": 64,
            "roleCurrent": "bullshitDetector",
            "marblesSampled": 10,
            "asymm": true,
            "probBullshitterRed": 0.8,
            "probBullshitDetectorRed": 0.5,
            "probGlobal": 0.78125,
            "drawnRed": 8,
            "reportedDrawn": 3,
            "compLie": -1,
            "compUnifLie": false,
            "compDetect": 0.5,
            "callBS": false,
            "playerTrialScore": 7,
            "oppTrialScore": 3,
            "playerTotalScore": 310,
            "oppTotalScore": 210,
            "waitTime": 6601.410412305404,
            "responseTime": 2268,
            "catchQuestion": "What was the proportion of red to blue marbles from your perspective?",
            "catchKey": 50,
            "catchResponse": "30",
            "catchResponseTime": 6040,
            "pseudoRound": true,
            "trialTime": 18165
        },
        {
            "exptPart": "trial",
            "trialNumber": 65,
            "roleCurrent": "bullshitter",
            "marblesSampled": 10,
            "asymm": false,
            "probBullshitterRed": 0.2,
            "probBullshitDetectorRed": 0.2,
            "probGlobal": 0.2,
            "drawnRed": 4,
            "reportedDrawn": 4,
            "compLie": -1,
            "compUnifLie": false,
            "compDetect": 0.7894069760000002,
            "callBS": true,
            "playerTrialScore": 4,
            "oppTrialScore": 1,
            "playerTotalScore": 314,
            "oppTotalScore": 211,
            "waitTime": 2210.316321803458,
            "responseTime": 4932,
            "catchQuestion": "What was the proportion of red to blue marbles from your opponent's perspective?",
            "catchKey": 20,
            "catchResponse": "27",
            "catchResponseTime": 9440,
            "pseudoRound": false,
            "trialTime": 28192
        },
        {
            "exptPart": "trial",
            "trialNumber": 66,
            "roleCurrent": "bullshitDetector",
            "marblesSampled": 10,
            "asymm": true,
            "probBullshitterRed": 0.8,
            "probBullshitDetectorRed": 0.5,
            "probGlobal": 0.78125,
            "drawnRed": 9,
            "reportedDrawn": 9,
            "compLie": 5,
            "compUnifLie": false,
            "compDetect": -1,
            "callBS": true,
            "playerTrialScore": -4,
            "oppTrialScore": 9,
            "playerTotalScore": 310,
            "oppTotalScore": 220,
            "waitTime": 5627.497806786669,
            "responseTime": 4607,
            "catchQuestion": "What was the proportion of red to blue marbles from your opponent's perspective?",
            "catchKey": -1,
            "catchResponse": -1,
            "catchResponseTime": -1,
            "pseudoRound": false,
            "trialTime": 12980
        },
        {
            "exptPart": "trial",
            "trialNumber": 67,
            "roleCurrent": "bullshitter",
            "marblesSampled": 10,
            "asymm": true,
            "probBullshitterRed": 0.2,
            "probBullshitDetectorRed": 0.8,
            "probGlobal": 0.2375,
            "drawnRed": 1,
            "reportedDrawn": 4,
            "compLie": -1,
            "compUnifLie": false,
            "compDetect": -0.11782097919999997,
            "callBS": false,
            "playerTrialScore": 4,
            "oppTrialScore": 6,
            "playerTotalScore": 314,
            "oppTotalScore": 226,
            "waitTime": 3172.9624846667966,
            "responseTime": 4396,
            "catchQuestion": "What was the proportion of red to blue marbles from your opponent's perspective?",
            "catchKey": -1,
            "catchResponse": -1,
            "catchResponseTime": -1,
            "pseudoRound": false,
            "trialTime": 12500
        },
        {
            "exptPart": "trial",
            "trialNumber": 68,
            "roleCurrent": "bullshitDetector",
            "marblesSampled": 10,
            "asymm": false,
            "probBullshitterRed": 0.2,
            "probBullshitDetectorRed": 0.2,
            "probGlobal": 0.2,
            "drawnRed": 2,
            "reportedDrawn": 2,
            "compLie": -1,
            "compUnifLie": true,
            "compDetect": -0.11782097919999997,
            "callBS": false,
            "playerTrialScore": 8,
            "oppTrialScore": 2,
            "playerTotalScore": 322,
            "oppTotalScore": 228,
            "waitTime": 5232.769593884344,
            "responseTime": 1666,
            "catchQuestion": "What was the proportion of red to blue marbles from your opponent's perspective?",
            "catchKey": -1,
            "catchResponse": -1,
            "catchResponseTime": -1,
            "pseudoRound": false,
            "trialTime": 10086
        },
        {
            "exptPart": "trial",
            "trialNumber": 69,
            "roleCurrent": "bullshitter",
            "marblesSampled": 10,
            "asymm": false,
            "probBullshitterRed": 0.5,
            "probBullshitDetectorRed": 0.5,
            "probGlobal": 0.5,
            "drawnRed": 6,
            "reportedDrawn": 6,
            "compLie": -1,
            "compUnifLie": false,
            "compDetect": 0.705078125,
            "callBS": true,
            "playerTrialScore": 6,
            "oppTrialScore": -1,
            "playerTotalScore": 328,
            "oppTotalScore": 227,
            "waitTime": 2529.886772391962,
            "responseTime": 5120,
            "catchQuestion": "What was the proportion of red to blue marbles from your opponent's perspective?",
            "catchKey": -1,
            "catchResponse": -1,
            "catchResponseTime": -1,
            "pseudoRound": false,
            "trialTime": 12072
        },
        {
            "exptPart": "trial",
            "trialNumber": 70,
            "roleCurrent": "bullshitDetector",
            "marblesSampled": 10,
            "asymm": true,
            "probBullshitterRed": 0.5,
            "probBullshitDetectorRed": 0.2,
            "probGlobal": 0.48125,
            "drawnRed": 6,
            "reportedDrawn": 6,
            "compLie": 2,
            "compUnifLie": false,
            "compDetect": -1,
            "callBS": false,
            "playerTrialScore": 4,
            "oppTrialScore": 6,
            "playerTotalScore": 332,
            "oppTotalScore": 233,
            "waitTime": 6026.094302137501,
            "responseTime": 2468,
            "catchQuestion": "What was the proportion of red to blue marbles from your opponent's perspective?",
            "catchKey": -1,
            "catchResponse": -1,
            "catchResponseTime": -1,
            "pseudoRound": false,
            "trialTime": 15187
        },
        {
            "exptPart": "trial",
            "trialNumber": 71,
            "roleCurrent": "bullshitter",
            "marblesSampled": 10,
            "asymm": true,
            "probBullshitterRed": 0.2,
            "probBullshitDetectorRed": 0.5,
            "probGlobal": 0.21875,
            "drawnRed": 0,
            "reportedDrawn": 6,
            "compLie": -1,
            "compUnifLie": false,
            "compDetect": 0.705078125,
            "callBS": true,
            "playerTrialScore": -5,
            "oppTrialScore": 5,
            "playerTotalScore": 327,
            "oppTotalScore": 238,
            "waitTime": 2275.0957855120987,
            "responseTime": 5090,
            "catchQuestion": "What was the proportion of red to blue marbles from your opponent's perspective?",
            "catchKey": -1,
            "catchResponse": -1,
            "catchResponseTime": -1,
            "pseudoRound": false,
            "trialTime": 12499
        },
        {
            "exptPart": "trial",
            "trialNumber": 72,
            "roleCurrent": "bullshitDetector",
            "marblesSampled": 10,
            "asymm": true,
            "probBullshitterRed": 0.8,
            "probBullshitDetectorRed": 0.2,
            "probGlobal": 0.7625,
            "drawnRed": 7,
            "reportedDrawn": 7,
            "compLie": 2,
            "compUnifLie": false,
            "compDetect": -1,
            "callBS": false,
            "playerTrialScore": 3,
            "oppTrialScore": 7,
            "playerTotalScore": 330,
            "oppTotalScore": 245,
            "waitTime": 7183.102607687226,
            "responseTime": 1779,
            "catchQuestion": "What was the proportion of red to blue marbles from your opponent's perspective?",
            "catchKey": -1,
            "catchResponse": -1,
            "catchResponseTime": -1,
            "pseudoRound": false,
            "trialTime": 11752
        },
        {
            "exptPart": "trial",
            "trialNumber": 73,
            "roleCurrent": "bullshitter",
            "marblesSampled": 10,
            "asymm": true,
            "probBullshitterRed": 0.8,
            "probBullshitDetectorRed": 0.5,
            "probGlobal": 0.78125,
            "drawnRed": 6,
            "reportedDrawn": 7,
            "compLie": -1,
            "compUnifLie": false,
            "compDetect": 0.822265625,
            "callBS": true,
            "playerTrialScore": -5,
            "oppTrialScore": 5,
            "playerTotalScore": 325,
            "oppTotalScore": 250,
            "waitTime": 2240.485759925199,
            "responseTime": 4109,
            "catchQuestion": "What was the proportion of red to blue marbles from your opponent's perspective?",
            "catchKey": -1,
            "catchResponse": -1,
            "catchResponseTime": -1,
            "pseudoRound": false,
            "trialTime": 12273
        },
        {
            "exptPart": "trial",
            "trialNumber": 74,
            "roleCurrent": "bullshitDetector",
            "marblesSampled": 10,
            "asymm": true,
            "probBullshitterRed": 0.2,
            "probBullshitDetectorRed": 0.8,
            "probGlobal": 0.2375,
            "drawnRed": 1,
            "reportedDrawn": 9,
            "compLie": 9,
            "compUnifLie": false,
            "compDetect": -1,
            "callBS": true,
            "playerTrialScore": 5,
            "oppTrialScore": -5,
            "playerTotalScore": 330,
            "oppTotalScore": 245,
            "waitTime": 6393.749673474003,
            "responseTime": 2209,
            "catchQuestion": "How many red marbles did your opponent report drawing?",
            "catchKey": 9,
            "catchResponse": 9,
            "catchResponseTime": 7843,
            "pseudoRound": false,
            "trialTime": 18617
        },
        {
            "exptPart": "trial",
            "trialNumber": 75,
            "roleCurrent": "bullshitter",
            "marblesSampled": 10,
            "asymm": true,
            "probBullshitterRed": 0.5,
            "probBullshitDetectorRed": 0.2,
            "probGlobal": 0.48125,
            "drawnRed": 10,
            "reportedDrawn": 9,
            "compLie": -1,
            "compUnifLie": false,
            "compDetect": 0.8222003712000001,
            "callBS": true,
            "playerTrialScore": -5,
            "oppTrialScore": 5,
            "playerTotalScore": 325,
            "oppTotalScore": 250,
            "waitTime": 2202.195380280199,
            "responseTime": 15101,
            "catchQuestion": "How many red marbles did your opponent report drawing?",
            "catchKey": -1,
            "catchResponse": -1,
            "catchResponseTime": -1,
            "pseudoRound": true,
            "trialTime": 29669
        },
        {
            "exptPart": "trial",
            "trialNumber": 76,
            "roleCurrent": "bullshitDetector",
            "marblesSampled": 10,
            "asymm": true,
            "probBullshitterRed": 0.5,
            "probBullshitDetectorRed": 0.8,
            "probGlobal": 0.51875,
            "drawnRed": 5,
            "reportedDrawn": 9,
            "compLie": 9,
            "compUnifLie": false,
            "compDetect": -1,
            "callBS": false,
            "playerTrialScore": 1,
            "oppTrialScore": 9,
            "playerTotalScore": 326,
            "oppTotalScore": 259,
            "waitTime": 5590.848253154585,
            "responseTime": 4248,
            "catchQuestion": "What was the proportion of red to blue marbles from your perspective?",
            "catchKey": 80,
            "catchResponse": "91",
            "catchResponseTime": 6095,
            "pseudoRound": false,
            "trialTime": 19173
        },
        {
            "exptPart": "trial",
            "trialNumber": 77,
            "roleCurrent": "bullshitter",
            "marblesSampled": 10,
            "asymm": false,
            "probBullshitterRed": 0.8,
            "probBullshitDetectorRed": 0.8,
            "probGlobal": 0.8,
            "drawnRed": 9,
            "reportedDrawn": 9,
            "compLie": -1,
            "compUnifLie": false,
            "compDetect": 0.7684354560000001,
            "callBS": true,
            "playerTrialScore": 9,
            "oppTrialScore": -4,
            "playerTotalScore": 335,
            "oppTotalScore": 255,
            "waitTime": 3085.804175048166,
            "responseTime": 2928,
            "catchQuestion": "What was the proportion of red to blue marbles from your perspective?",
            "catchKey": -1,
            "catchResponse": -1,
            "catchResponseTime": -1,
            "pseudoRound": false,
            "trialTime": 12100
        },
        {
            "exptPart": "trial",
            "trialNumber": 78,
            "roleCurrent": "bullshitDetector",
            "marblesSampled": 10,
            "asymm": true,
            "probBullshitterRed": 0.5,
            "probBullshitDetectorRed": 0.2,
            "probGlobal": 0.48125,
            "drawnRed": 4,
            "reportedDrawn": 1,
            "compLie": -1,
            "compUnifLie": false,
            "compDetect": 0.7684354560000001,
            "callBS": false,
            "playerTrialScore": 9,
            "oppTrialScore": 1,
            "playerTotalScore": 344,
            "oppTotalScore": 256,
            "waitTime": 6951.485988573431,
            "responseTime": 2378,
            "catchQuestion": "What was the proportion of red to blue marbles from your perspective?",
            "catchKey": 20,
            "catchResponse": "10",
            "catchResponseTime": 4160,
            "pseudoRound": true,
            "trialTime": 15685
        },
        {
            "exptPart": "trial",
            "trialNumber": 79,
            "roleCurrent": "bullshitter",
            "marblesSampled": 10,
            "asymm": true,
            "probBullshitterRed": 0.5,
            "probBullshitDetectorRed": 0.2,
            "probGlobal": 0.48125,
            "drawnRed": 4,
            "reportedDrawn": 5,
            "compLie": -1,
            "compUnifLie": false,
            "compDetect": 0.8158310912000002,
            "callBS": false,
            "playerTrialScore": 5,
            "oppTrialScore": 5,
            "playerTotalScore": 349,
            "oppTotalScore": 261,
            "waitTime": 2575.2005841949185,
            "responseTime": 6620,
            "catchQuestion": "What was the proportion of red to blue marbles from your perspective?",
            "catchKey": -1,
            "catchResponse": -1,
            "catchResponseTime": -1,
            "pseudoRound": false,
            "trialTime": 15068
        },
        {
            "exptPart": "trial",
            "trialNumber": 80,
            "roleCurrent": "bullshitDetector",
            "marblesSampled": 10,
            "asymm": true,
            "probBullshitterRed": 0.2,
            "probBullshitDetectorRed": 0.5,
            "probGlobal": 0.21875,
            "drawnRed": 3,
            "reportedDrawn": 7,
            "compLie": 7,
            "compUnifLie": false,
            "compDetect": -1,
            "callBS": false,
            "playerTrialScore": 3,
            "oppTrialScore": 7,
            "playerTotalScore": 352,
            "oppTotalScore": 268,
            "waitTime": 6613.156672975311,
            "responseTime": 1489,
            "catchQuestion": "What was the proportion of red to blue marbles from your perspective?",
            "catchKey": -1,
            "catchResponse": -1,
            "catchResponseTime": -1,
            "pseudoRound": false,
            "trialTime": 13825
        },
        {
            "exptPart": "trial",
            "trialNumber": 81,
            "roleCurrent": "bullshitter",
            "marblesSampled": 10,
            "asymm": true,
            "probBullshitterRed": 0.8,
            "probBullshitDetectorRed": 0.5,
            "probGlobal": 0.78125,
            "drawnRed": 7,
            "reportedDrawn": 7,
            "compLie": -1,
            "compUnifLie": false,
            "compDetect": 0.822265625,
            "callBS": false,
            "playerTrialScore": 7,
            "oppTrialScore": 3,
            "playerTotalScore": 359,
            "oppTotalScore": 271,
            "waitTime": 2695.529411151621,
            "responseTime": 3884,
            "catchQuestion": "What was the proportion of red to blue marbles from your perspective?",
            "catchKey": -1,
            "catchResponse": -1,
            "catchResponseTime": -1,
            "pseudoRound": false,
            "trialTime": 11408
        },
        {
            "exptPart": "trial",
            "trialNumber": 82,
            "roleCurrent": "bullshitDetector",
            "marblesSampled": 10,
            "asymm": true,
            "probBullshitterRed": 0.8,
            "probBullshitDetectorRed": 0.5,
            "probGlobal": 0.78125,
            "drawnRed": 5,
            "reportedDrawn": 7,
            "compLie": 7,
            "compUnifLie": false,
            "compDetect": -1,
            "callBS": true,
            "playerTrialScore": 5,
            "oppTrialScore": -5,
            "playerTotalScore": 364,
            "oppTotalScore": 266,
            "waitTime": 6191.255846681199,
            "responseTime": 3038,
            "catchQuestion": "What was the proportion of red to blue marbles from your perspective?",
            "catchKey": -1,
            "catchResponse": -1,
            "catchResponseTime": -1,
            "pseudoRound": false,
            "trialTime": 11108
        },
        {
            "exptPart": "trial",
            "trialNumber": 83,
            "roleCurrent": "bullshitter",
            "marblesSampled": 10,
            "asymm": false,
            "probBullshitterRed": 0.5,
            "probBullshitDetectorRed": 0.5,
            "probGlobal": 0.5,
            "drawnRed": 8,
            "reportedDrawn": 8,
            "compLie": -1,
            "compUnifLie": false,
            "compDetect": 0.8662109375,
            "callBS": true,
            "playerTrialScore": 8,
            "oppTrialScore": -3,
            "playerTotalScore": 372,
            "oppTotalScore": 263,
            "waitTime": 3085.9288151326396,
            "responseTime": 3519,
            "catchQuestion": "What was the proportion of red to blue marbles from your perspective?",
            "catchKey": -1,
            "catchResponse": -1,
            "catchResponseTime": -1,
            "pseudoRound": true,
            "trialTime": 10921
        },
        {
            "exptPart": "trial",
            "trialNumber": 84,
            "roleCurrent": "bullshitDetector",
            "marblesSampled": 10,
            "asymm": true,
            "probBullshitterRed": 0.2,
            "probBullshitDetectorRed": 0.8,
            "probGlobal": 0.2375,
            "drawnRed": 0,
            "reportedDrawn": 10,
            "compLie": -1,
            "compUnifLie": true,
            "compDetect": 0.8662109375,
            "callBS": false,
            "playerTrialScore": 0,
            "oppTrialScore": 10,
            "playerTotalScore": 372,
            "oppTotalScore": 273,
            "waitTime": 5649.708665731414,
            "responseTime": 3474,
            "catchQuestion": "What was the proportion of red to blue marbles from your perspective?",
            "catchKey": -1,
            "catchResponse": -1,
            "catchResponseTime": -1,
            "pseudoRound": false,
            "trialTime": 10806
        },
        {
            "exptPart": "trial",
            "trialNumber": 85,
            "roleCurrent": "bullshitter",
            "marblesSampled": 10,
            "asymm": true,
            "probBullshitterRed": 0.2,
            "probBullshitDetectorRed": 0.5,
            "probGlobal": 0.21875,
            "drawnRed": 3,
            "reportedDrawn": 4,
            "compLie": -1,
            "compUnifLie": false,
            "compDetect": 0.25390625,
            "callBS": false,
            "playerTrialScore": 4,
            "oppTrialScore": 6,
            "playerTotalScore": 376,
            "oppTotalScore": 279,
            "waitTime": 2356.841076750797,
            "responseTime": 4275,
            "catchQuestion": "What was the proportion of red to blue marbles from your perspective?",
            "catchKey": -1,
            "catchResponse": -1,
            "catchResponseTime": -1,
            "pseudoRound": false,
            "trialTime": 16781
        },
        {
            "exptPart": "trial",
            "trialNumber": 86,
            "roleCurrent": "bullshitDetector",
            "marblesSampled": 10,
            "asymm": false,
            "probBullshitterRed": 0.8,
            "probBullshitDetectorRed": 0.8,
            "probGlobal": 0.8,
            "drawnRed": 7,
            "reportedDrawn": 3,
            "compLie": -1,
            "compUnifLie": true,
            "compDetect": 0.25390625,
            "callBS": false,
            "playerTrialScore": 7,
            "oppTrialScore": 3,
            "playerTotalScore": 383,
            "oppTotalScore": 282,
            "waitTime": 5645.156266071722,
            "responseTime": 1415,
            "catchQuestion": "What was the proportion of red to blue marbles from your perspective?",
            "catchKey": -1,
            "catchResponse": -1,
            "catchResponseTime": -1,
            "pseudoRound": false,
            "trialTime": 9216
        },
        {
            "exptPart": "trial",
            "trialNumber": 87,
            "roleCurrent": "bullshitter",
            "marblesSampled": 10,
            "asymm": true,
            "probBullshitterRed": 0.5,
            "probBullshitDetectorRed": 0.8,
            "probGlobal": 0.51875,
            "drawnRed": 4,
            "reportedDrawn": 4,
            "compLie": -1,
            "compUnifLie": false,
            "compDetect": -0.11782097919999997,
            "callBS": false,
            "playerTrialScore": 4,
            "oppTrialScore": 6,
            "playerTotalScore": 387,
            "oppTotalScore": 288,
            "waitTime": 2761.3360341972957,
            "responseTime": 6801,
            "catchQuestion": "What was the proportion of red to blue marbles from your perspective?",
            "catchKey": -1,
            "catchResponse": -1,
            "catchResponseTime": -1,
            "pseudoRound": false,
            "trialTime": 14481
        },
        {
            "exptPart": "trial",
            "trialNumber": 88,
            "roleCurrent": "bullshitDetector",
            "marblesSampled": 10,
            "asymm": true,
            "probBullshitterRed": 0.8,
            "probBullshitDetectorRed": 0.2,
            "probGlobal": 0.7625,
            "drawnRed": 8,
            "reportedDrawn": 3,
            "compLie": -1,
            "compUnifLie": true,
            "compDetect": -0.11782097919999997,
            "callBS": false,
            "playerTrialScore": 7,
            "oppTrialScore": 3,
            "playerTotalScore": 394,
            "oppTotalScore": 291,
            "waitTime": 6703.332546853675,
            "responseTime": 1465,
            "catchQuestion": "What was the proportion of red to blue marbles from your perspective?",
            "catchKey": -1,
            "catchResponse": -1,
            "catchResponseTime": -1,
            "pseudoRound": false,
            "trialTime": 10477
        },
        {
            "exptPart": "trial",
            "trialNumber": 89,
            "roleCurrent": "bullshitter",
            "marblesSampled": 10,
            "asymm": true,
            "probBullshitterRed": 0.8,
            "probBullshitDetectorRed": 0.2,
            "probGlobal": 0.7625,
            "drawnRed": 5,
            "reportedDrawn": 5,
            "compLie": -1,
            "compUnifLie": false,
            "compDetect": 0.8158310912000002,
            "callBS": true,
            "playerTrialScore": 5,
            "oppTrialScore": 0,
            "playerTotalScore": 399,
            "oppTotalScore": 291,
            "waitTime": 2181.872942845517,
            "responseTime": 4818,
            "catchQuestion": "What was the proportion of red to blue marbles from your perspective?",
            "catchKey": -1,
            "catchResponse": -1,
            "catchResponseTime": -1,
            "pseudoRound": true,
            "trialTime": 11841
        },
        {
            "exptPart": "trial",
            "trialNumber": 90,
            "roleCurrent": "bullshitDetector",
            "marblesSampled": 10,
            "asymm": false,
            "probBullshitterRed": 0.2,
            "probBullshitDetectorRed": 0.2,
            "probGlobal": 0.2,
            "drawnRed": 2,
            "reportedDrawn": 8,
            "compLie": -1,
            "compUnifLie": true,
            "compDetect": 0.8158310912000002,
            "callBS": false,
            "playerTrialScore": 2,
            "oppTrialScore": 8,
            "playerTotalScore": 401,
            "oppTotalScore": 299,
            "waitTime": 5647.310935747626,
            "responseTime": 3362,
            "catchQuestion": "What was the proportion of red to blue marbles from your perspective?",
            "catchKey": -1,
            "catchResponse": -1,
            "catchResponseTime": -1,
            "pseudoRound": false,
            "trialTime": 14561
        },
        {
            "exptPart": "trial",
            "trialNumber": 91,
            "roleCurrent": "bullshitter",
            "marblesSampled": 10,
            "asymm": true,
            "probBullshitterRed": 0.8,
            "probBullshitDetectorRed": 0.2,
            "probGlobal": 0.7625,
            "drawnRed": 7,
            "reportedDrawn": 7,
            "compLie": -1,
            "compUnifLie": false,
            "compDetect": 0.8221225472000001,
            "callBS": true,
            "playerTrialScore": 7,
            "oppTrialScore": -2,
            "playerTotalScore": 408,
            "oppTotalScore": 297,
            "waitTime": 2643.7962915775615,
            "responseTime": 3788,
            "catchQuestion": "What was the proportion of red to blue marbles from your perspective?",
            "catchKey": -1,
            "catchResponse": -1,
            "catchResponseTime": -1,
            "pseudoRound": false,
            "trialTime": 11501
        },
        {
            "exptPart": "trial",
            "trialNumber": 92,
            "roleCurrent": "bullshitDetector",
            "marblesSampled": 10,
            "asymm": false,
            "probBullshitterRed": 0.5,
            "probBullshitDetectorRed": 0.5,
            "probGlobal": 0.5,
            "drawnRed": 7,
            "reportedDrawn": 7,
            "compLie": 4,
            "compUnifLie": false,
            "compDetect": -1,
            "callBS": true,
            "playerTrialScore": -2,
            "oppTrialScore": 7,
            "playerTotalScore": 406,
            "oppTotalScore": 304,
            "waitTime": 5659.148373523041,
            "responseTime": 3498,
            "catchQuestion": "What was the proportion of red to blue marbles from your perspective?",
            "catchKey": -1,
            "catchResponse": -1,
            "catchResponseTime": -1,
            "pseudoRound": false,
            "trialTime": 10847
        },
        {
            "exptPart": "trial",
            "trialNumber": 93,
            "roleCurrent": "bullshitter",
            "marblesSampled": 10,
            "asymm": true,
            "probBullshitterRed": 0.2,
            "probBullshitDetectorRed": 0.5,
            "probGlobal": 0.21875,
            "drawnRed": 2,
            "reportedDrawn": 3,
            "compLie": -1,
            "compUnifLie": false,
            "compDetect": 0.048828125,
            "callBS": false,
            "playerTrialScore": 3,
            "oppTrialScore": 7,
            "playerTotalScore": 409,
            "oppTotalScore": 311,
            "waitTime": 2928.3356762238827,
            "responseTime": 4428,
            "catchQuestion": "What was the proportion of red to blue marbles from your perspective?",
            "catchKey": -1,
            "catchResponse": -1,
            "catchResponseTime": -1,
            "pseudoRound": false,
            "trialTime": 11501
        },
        {
            "exptPart": "trial",
            "trialNumber": 94,
            "roleCurrent": "bullshitDetector",
            "marblesSampled": 10,
            "asymm": false,
            "probBullshitterRed": 0.8,
            "probBullshitDetectorRed": 0.8,
            "probGlobal": 0.8,
            "drawnRed": 7,
            "reportedDrawn": 5,
            "compLie": -1,
            "compUnifLie": true,
            "compDetect": 0.048828125,
            "callBS": false,
            "playerTrialScore": 5,
            "oppTrialScore": 5,
            "playerTotalScore": 414,
            "oppTotalScore": 316,
            "waitTime": 6306.728478808631,
            "responseTime": 2437,
            "catchQuestion": "What was the proportion of red to blue marbles from your perspective?",
            "catchKey": -1,
            "catchResponse": -1,
            "catchResponseTime": -1,
            "pseudoRound": false,
            "trialTime": 10527
        },
        {
            "exptPart": "trial",
            "trialNumber": 95,
            "roleCurrent": "bullshitter",
            "marblesSampled": 10,
            "asymm": true,
            "probBullshitterRed": 0.5,
            "probBullshitDetectorRed": 0.8,
            "probGlobal": 0.51875,
            "drawnRed": 6,
            "reportedDrawn": 6,
            "compLie": -1,
            "compUnifLie": false,
            "compDetect": -0.0033164800000000383,
            "callBS": false,
            "playerTrialScore": 6,
            "oppTrialScore": 4,
            "playerTotalScore": 420,
            "oppTotalScore": 320,
            "waitTime": 2441.189158245495,
            "responseTime": 4939,
            "catchQuestion": "What was the proportion of red to blue marbles from your perspective?",
            "catchKey": -1,
            "catchResponse": -1,
            "catchResponseTime": -1,
            "pseudoRound": false,
            "trialTime": 16541
        },
        {
            "exptPart": "trial",
            "trialNumber": 96,
            "roleCurrent": "bullshitDetector",
            "marblesSampled": 10,
            "asymm": true,
            "probBullshitterRed": 0.5,
            "probBullshitDetectorRed": 0.2,
            "probGlobal": 0.48125,
            "drawnRed": 6,
            "reportedDrawn": 1,
            "compLie": -1,
            "compUnifLie": true,
            "compDetect": -0.0033164800000000383,
            "callBS": false,
            "playerTrialScore": 9,
            "oppTrialScore": 1,
            "playerTotalScore": 429,
            "oppTotalScore": 321,
            "waitTime": 6166.716367311012,
            "responseTime": 3688,
            "catchQuestion": "What was the proportion of red to blue marbles from your perspective?",
            "catchKey": -1,
            "catchResponse": -1,
            "catchResponseTime": -1,
            "pseudoRound": false,
            "trialTime": 12228
        },
        {
            "exptPart": "trial",
            "trialNumber": 97,
            "roleCurrent": "bullshitter",
            "marblesSampled": 10,
            "asymm": true,
            "probBullshitterRed": 0.8,
            "probBullshitDetectorRed": 0.5,
            "probGlobal": 0.78125,
            "drawnRed": 10,
            "reportedDrawn": 10,
            "compLie": -1,
            "compUnifLie": false,
            "compDetect": 0.876953125,
            "callBS": true,
            "playerTrialScore": 10,
            "oppTrialScore": -5,
            "playerTotalScore": 439,
            "oppTotalScore": 316,
