{
    "client": {
        "type": "sona",
        "experiment_id": 1505,
        "credit_token": "b20092f9d3b34a378ee654bcc50710ea",
        "survey_code": "32192",
        "sid": "sona-32192",
        "window": {
            "width": 1440,
            "height": 814
        },
        "screen": {
            "width": 1440,
            "height": 900
        },
        "userAgent": "Mozilla\/5.0 (Macintosh; Intel Mac OS X 10_14_6) AppleWebKit\/605.1.15 (KHTML, like Gecko) Version\/13.1.2 Safari\/605.1.15",
        "score": 0,
        "bonus": 0
    },
    "expt": {
        "saveURL": "submit.simple.php",
        "trials": 100,
        "practiceTrials": 4,
        "marblesSampled": 10,
        "roles": [
            "bullshitter",
            "bullshitDetector"
        ],
        "roleFirst": "bullshitDetector",
        "allTrialProbs": [
            0.2,
            0.5,
            0.8
        ],
        "occlude": "human",
        "catchTrials": [
            6,
            17,
            18,
            12,
            84,
            52,
            21,
            44,
            54,
            8,
            65,
            30,
            93,
            63,
            40
        ],
        "pseudo": {
            "3": 8,
            "4": 6,
            "8": 2,
            "9": 1,
            "14": 7,
            "15": 10,
            "19": 5,
            "21": 2,
            "31": 4,
            "38": 5,
            "46": 0,
            "49": 0,
            "60": 9,
            "64": 1,
            "66": 4,
            "68": 8,
            "71": 7,
            "73": 3,
            "74": 3,
            "83": 6,
            "88": 10,
            "97": 9
        },
        "stat": {
            "playerTotalScore": 379,
            "oppTotalScore": 166,
            "truth": 28,
            "truth_noBS": 15,
            "truth_BS": 13,
            "lie": 22,
            "lie_noBS": 13,
            "lie_BS": 9,
            "noBS": 17,
            "noBS_truth": 5,
            "noBS_lie": 12,
            "BS": 33,
            "BS_truth": 6,
            "BS_lie": 27
        },
        "sona": {
            "experiment_id": 1505,
            "credit_token": "b20092f9d3b34a378ee654bcc50710ea"
        },
        "debug": false
    },
    "trials": [
        {
            "exptPart": "practice",
            "trialNumber": 1,
            "roleCurrent": "bullshitter",
            "marblesSampled": 10,
            "asymm": false,
            "probBullshitterRed": 0.2,
            "probBullshitDetectorRed": 0.2,
            "probGlobal": 0.2,
            "drawnRed": 1,
            "reportedDrawn": 1,
            "compLie": -1,
            "compUnifLie": false,
            "compDetect": 0.19801011199999963,
            "callBS": false,
            "playerTrialScore": 1,
            "oppTrialScore": 9,
            "playerTotalScore": 1,
            "oppTotalScore": 9,
            "waitTime": 2302.3355737763513,
            "responseTime": 5700,
            "catchQuestion": "What was the proportion of red to blue marbles from your opponent's perspective?",
            "catchKey": 20,
            "catchResponse": "56",
            "catchResponseTime": 3074,
            "pseudoRound": false,
            "trialTime": 20189
        },
        {
            "exptPart": "practice",
            "trialNumber": 2,
            "roleCurrent": "bullshitDetector",
            "marblesSampled": 10,
            "asymm": true,
            "probBullshitterRed": 0.5,
            "probBullshitDetectorRed": 0.2,
            "probGlobal": 0.48125,
            "drawnRed": 7,
            "reportedDrawn": 7,
            "compLie": 0,
            "compUnifLie": false,
            "compDetect": -1,
            "callBS": false,
            "playerTrialScore": 3,
            "oppTrialScore": 7,
            "playerTotalScore": 4,
            "oppTotalScore": 16,
            "waitTime": 7002.182553775841,
            "responseTime": 1439,
            "catchQuestion": "What was the proportion of red to blue marbles from your perspective?",
            "catchKey": 20,
            "catchResponse": "62",
            "catchResponseTime": 1721,
            "pseudoRound": false,
            "trialTime": 15998
        },
        {
            "exptPart": "practice",
            "trialNumber": 3,
            "roleCurrent": "bullshitter",
            "marblesSampled": 10,
            "asymm": true,
            "probBullshitterRed": 0.2,
            "probBullshitDetectorRed": 0.5,
            "probGlobal": 0.21875,
            "drawnRed": 3,
            "reportedDrawn": 3,
            "compLie": -1,
            "compUnifLie": false,
            "compDetect": 0.048828125,
            "callBS": false,
            "playerTrialScore": 3,
            "oppTrialScore": 7,
            "playerTotalScore": 7,
            "oppTotalScore": 23,
            "waitTime": 2150.8600909682395,
            "responseTime": 3980,
            "catchQuestion": "What was the proportion of red to blue marbles from your opponent's perspective?",
            "catchKey": 50,
            "catchResponse": "63",
            "catchResponseTime": 3069,
            "pseudoRound": false,
            "trialTime": 14973
        },
        {
            "exptPart": "practice",
            "trialNumber": 4,
            "roleCurrent": "bullshitDetector",
            "marblesSampled": 10,
            "asymm": true,
            "probBullshitterRed": 0.2,
            "probBullshitDetectorRed": 0.8,
            "probGlobal": 0.2375,
            "drawnRed": 0,
            "reportedDrawn": 9,
            "compLie": 9,
            "compUnifLie": false,
            "compDetect": -1,
            "callBS": false,
            "playerTrialScore": 1,
            "oppTrialScore": 9,
            "playerTotalScore": 8,
            "oppTotalScore": 32,
            "waitTime": 7380.32961401251,
            "responseTime": 1336,
            "catchQuestion": "What was the proportion of red to blue marbles from your perspective?",
            "catchKey": 80,
            "catchResponse": "61",
            "catchResponseTime": 1769,
            "pseudoRound": false,
            "trialTime": 12838
        },
        {
            "exptPart": "trial",
            "trialNumber": 1,
            "roleCurrent": "bullshitDetector",
            "marblesSampled": 10,
            "asymm": true,
            "probBullshitterRed": 0.2,
            "probBullshitDetectorRed": 0.5,
            "probGlobal": 0.21875,
            "drawnRed": 4,
            "reportedDrawn": 9,
            "compLie": 9,
            "compUnifLie": true,
            "compDetect": -1,
            "callBS": true,
            "playerTrialScore": 5,
            "oppTrialScore": -5,
            "playerTotalScore": 5,
            "oppTotalScore": -5,
            "waitTime": 5841.573690933338,
            "responseTime": 3468,
            "catchQuestion": "What was the proportion of red to blue marbles from your perspective?",
            "catchKey": -1,
            "catchResponse": -1,
            "catchResponseTime": -1,
            "pseudoRound": false,
            "trialTime": 10924
        },
        {
            "exptPart": "trial",
            "trialNumber": 2,
            "roleCurrent": "bullshitter",
            "marblesSampled": 10,
            "asymm": true,
            "probBullshitterRed": 0.2,
            "probBullshitDetectorRed": 0.8,
            "probGlobal": 0.2375,
            "drawnRed": 3,
            "reportedDrawn": 3,
            "compLie": -1,
            "compUnifLie": false,
            "compDetect": -0.12332600319999996,
            "callBS": false,
            "playerTrialScore": 3,
            "oppTrialScore": 7,
            "playerTotalScore": 8,
            "oppTotalScore": 2,
            "waitTime": 3027.4602092982364,
            "responseTime": 2371,
            "catchQuestion": "What was the proportion of red to blue marbles from your perspective?",
            "catchKey": -1,
            "catchResponse": -1,
            "catchResponseTime": -1,
            "pseudoRound": false,
            "trialTime": 9918
        },
        {
            "exptPart": "trial",
            "trialNumber": 3,
            "roleCurrent": "bullshitDetector",
            "marblesSampled": 10,
            "asymm": true,
            "probBullshitterRed": 0.5,
            "probBullshitDetectorRed": 0.8,
            "probGlobal": 0.51875,
            "drawnRed": 3,
            "reportedDrawn": 10,
            "compLie": 10,
            "compUnifLie": false,
            "compDetect": -1,
            "callBS": true,
            "playerTrialScore": 5,
            "oppTrialScore": -5,
            "playerTotalScore": 13,
            "oppTotalScore": -3,
            "waitTime": 6568.267872922168,
            "responseTime": 7192,
            "catchQuestion": "What was the proportion of red to blue marbles from your perspective?",
            "catchKey": -1,
            "catchResponse": -1,
            "catchResponseTime": -1,
            "pseudoRound": false,
            "trialTime": 15880
        },
        {
            "exptPart": "trial",
            "trialNumber": 4,
            "roleCurrent": "bullshitter",
            "marblesSampled": 10,
            "asymm": true,
            "probBullshitterRed": 0.2,
            "probBullshitDetectorRed": 0.5,
            "probGlobal": 0.21875,
            "drawnRed": 8,
            "reportedDrawn": 8,
            "compLie": -1,
            "compUnifLie": false,
            "compDetect": 0.8662109375,
            "callBS": true,
            "playerTrialScore": 8,
            "oppTrialScore": -3,
            "playerTotalScore": 21,
            "oppTotalScore": -6,
            "waitTime": 2088.635134426699,
            "responseTime": 2738,
            "catchQuestion": "What was the proportion of red to blue marbles from your perspective?",
            "catchKey": -1,
            "catchResponse": -1,
            "catchResponseTime": -1,
            "pseudoRound": true,
            "trialTime": 9701
        },
        {
            "exptPart": "trial",
            "trialNumber": 5,
            "roleCurrent": "bullshitDetector",
            "marblesSampled": 10,
            "asymm": true,
            "probBullshitterRed": 0.8,
            "probBullshitDetectorRed": 0.5,
            "probGlobal": 0.78125,
            "drawnRed": 9,
            "reportedDrawn": 6,
            "compLie": -1,
            "compUnifLie": false,
            "compDetect": 0.8662109375,
            "callBS": true,
            "playerTrialScore": 5,
            "oppTrialScore": -5,
            "playerTotalScore": 26,
            "oppTotalScore": -11,
            "waitTime": 6520.71487206421,
            "responseTime": 2034,
            "catchQuestion": "What was the proportion of red to blue marbles from your perspective?",
            "catchKey": -1,
            "catchResponse": -1,
            "catchResponseTime": -1,
            "pseudoRound": true,
            "trialTime": 10334
        },
        {
            "exptPart": "trial",
            "trialNumber": 6,
            "roleCurrent": "bullshitter",
            "marblesSampled": 10,
            "asymm": true,
            "probBullshitterRed": 0.8,
            "probBullshitDetectorRed": 0.5,
            "probGlobal": 0.78125,
            "drawnRed": 10,
            "reportedDrawn": 10,
            "compLie": -1,
            "compUnifLie": false,
            "compDetect": 0.876953125,
            "callBS": true,
            "playerTrialScore": 10,
            "oppTrialScore": -5,
            "playerTotalScore": 36,
            "oppTotalScore": -16,
            "waitTime": 2125.8461146521804,
            "responseTime": 2476,
            "catchQuestion": "What was the proportion of red to blue marbles from your perspective?",
            "catchKey": -1,
            "catchResponse": -1,
            "catchResponseTime": -1,
            "pseudoRound": false,
            "trialTime": 9389
        },
        {
            "exptPart": "trial",
            "trialNumber": 7,
            "roleCurrent": "bullshitDetector",
            "marblesSampled": 10,
            "asymm": false,
            "probBullshitterRed": 0.5,
            "probBullshitDetectorRed": 0.5,
            "probGlobal": 0.5,
            "drawnRed": 7,
            "reportedDrawn": 7,
            "compLie": 7,
            "compUnifLie": false,
            "compDetect": -1,
            "callBS": true,
            "playerTrialScore": -2,
            "oppTrialScore": 7,
            "playerTotalScore": 34,
            "oppTotalScore": -9,
            "waitTime": 5714.2449447102135,
            "responseTime": 2147,
            "catchQuestion": "What was the proportion of red to blue marbles from your opponent's perspective?",
            "catchKey": "NA",
            "catchResponse": "64",
            "catchResponseTime": 3404,
            "pseudoRound": false,
            "trialTime": 12664
        },
        {
            "exptPart": "trial",
            "trialNumber": 8,
            "roleCurrent": "bullshitter",
            "marblesSampled": 10,
            "asymm": false,
            "probBullshitterRed": 0.8,
            "probBullshitDetectorRed": 0.8,
            "probGlobal": 0.8,
            "drawnRed": 7,
            "reportedDrawn": 7,
            "compLie": -1,
            "compUnifLie": false,
            "compDetect": 0.19801011199999996,
            "callBS": false,
            "playerTrialScore": 7,
            "oppTrialScore": 3,
            "playerTotalScore": 41,
            "oppTotalScore": -6,
            "waitTime": 2933.7753724076497,
            "responseTime": 3715,
            "catchQuestion": "What was the proportion of red to blue marbles from your opponent's perspective?",
            "catchKey": -1,
            "catchResponse": -1,
            "catchResponseTime": -1,
            "pseudoRound": false,
            "trialTime": 12503
        },
        {
            "exptPart": "trial",
            "trialNumber": 9,
            "roleCurrent": "bullshitDetector",
            "marblesSampled": 10,
            "asymm": true,
            "probBullshitterRed": 0.2,
            "probBullshitDetectorRed": 0.5,
            "probGlobal": 0.21875,
            "drawnRed": 1,
            "reportedDrawn": 2,
            "compLie": -1,
            "compUnifLie": false,
            "compDetect": 0.19801011199999996,
            "callBS": true,
            "playerTrialScore": 5,
            "oppTrialScore": -5,
            "playerTotalScore": 46,
            "oppTotalScore": -11,
            "waitTime": 6552.755780795178,
            "responseTime": 1709,
            "catchQuestion": "What was the proportion of red to blue marbles from your perspective?",
            "catchKey": 50,
            "catchResponse": "44",
            "catchResponseTime": 5794,
            "pseudoRound": true,
            "trialTime": 15545
        },
        {
            "exptPart": "trial",
            "trialNumber": 10,
            "roleCurrent": "bullshitter",
            "marblesSampled": 10,
            "asymm": false,
            "probBullshitterRed": 0.2,
            "probBullshitDetectorRed": 0.2,
            "probGlobal": 0.2,
            "drawnRed": 1,
            "reportedDrawn": 1,
            "compLie": -1,
            "compUnifLie": false,
            "compDetect": 0.19801011199999963,
            "callBS": true,
            "playerTrialScore": 1,
            "oppTrialScore": 4,
            "playerTotalScore": 47,
            "oppTotalScore": -7,
            "waitTime": 2167.4751827593027,
            "responseTime": 2491,
            "catchQuestion": "What was the proportion of red to blue marbles from your perspective?",
            "catchKey": -1,
            "catchResponse": -1,
            "catchResponseTime": -1,
            "pseudoRound": true,
            "trialTime": 10117
        },
        {
            "exptPart": "trial",
            "trialNumber": 11,
            "roleCurrent": "bullshitDetector",
            "marblesSampled": 10,
            "asymm": false,
            "probBullshitterRed": 0.5,
            "probBullshitDetectorRed": 0.5,
            "probGlobal": 0.5,
            "drawnRed": 6,
            "reportedDrawn": 7,
            "compLie": -1,
            "compUnifLie": true,
            "compDetect": 0.19801011199999963,
            "callBS": true,
            "playerTrialScore": 5,
            "oppTrialScore": -5,
            "playerTotalScore": 52,
            "oppTotalScore": -12,
            "waitTime": 6814.770999902501,
            "responseTime": 2463,
            "catchQuestion": "What was the proportion of red to blue marbles from your perspective?",
            "catchKey": -1,
            "catchResponse": -1,
            "catchResponseTime": -1,
            "pseudoRound": false,
            "trialTime": 11262
        },
        {
            "exptPart": "trial",
            "trialNumber": 12,
            "roleCurrent": "bullshitter",
            "marblesSampled": 10,
            "asymm": true,
            "probBullshitterRed": 0.5,
            "probBullshitDetectorRed": 0.8,
            "probGlobal": 0.51875,
            "drawnRed": 6,
            "reportedDrawn": 6,
            "compLie": -1,
            "compUnifLie": false,
            "compDetect": -0.0033164800000000383,
            "callBS": false,
            "playerTrialScore": 6,
            "oppTrialScore": 4,
            "playerTotalScore": 58,
            "oppTotalScore": -8,
            "waitTime": 2946.2977178281926,
            "responseTime": 3099,
            "catchQuestion": "What was the proportion of red to blue marbles from your perspective?",
            "catchKey": -1,
            "catchResponse": -1,
            "catchResponseTime": -1,
            "pseudoRound": false,
            "trialTime": 10309
        },
        {
            "exptPart": "trial",
            "trialNumber": 13,
            "roleCurrent": "bullshitDetector",
            "marblesSampled": 10,
            "asymm": true,
            "probBullshitterRed": 0.8,
            "probBullshitDetectorRed": 0.5,
            "probGlobal": 0.78125,
            "drawnRed": 7,
            "reportedDrawn": 7,
            "compLie": 6,
            "compUnifLie": false,
            "compDetect": -1,
            "callBS": false,
            "playerTrialScore": 3,
            "oppTrialScore": 7,
            "playerTotalScore": 61,
            "oppTotalScore": -1,
            "waitTime": 5664.899783048244,
            "responseTime": 5879,
            "catchQuestion": "How many red marbles did your opponent report drawing?",
            "catchKey": 7,
            "catchResponse": 7,
            "catchResponseTime": 3957,
            "pseudoRound": false,
            "trialTime": 17394
        },
        {
            "exptPart": "trial",
            "trialNumber": 14,
            "roleCurrent": "bullshitter",
            "marblesSampled": 10,
            "asymm": false,
            "probBullshitterRed": 0.8,
            "probBullshitDetectorRed": 0.8,
            "probGlobal": 0.8,
            "drawnRed": 7,
            "reportedDrawn": 7,
            "compLie": -1,
            "compUnifLie": false,
            "compDetect": 0.19801011199999996,
            "callBS": true,
            "playerTrialScore": 7,
            "oppTrialScore": -2,
            "playerTotalScore": 68,
            "oppTotalScore": -3,
            "waitTime": 2222.820904996211,
            "responseTime": 2731,
            "catchQuestion": "How many red marbles did your opponent report drawing?",
            "catchKey": -1,
            "catchResponse": -1,
            "catchResponseTime": -1,
            "pseudoRound": false,
            "trialTime": 10678
        },
        {
            "exptPart": "trial",
            "trialNumber": 15,
            "roleCurrent": "bullshitDetector",
            "marblesSampled": 10,
            "asymm": true,
            "probBullshitterRed": 0.2,
            "probBullshitDetectorRed": 0.8,
            "probGlobal": 0.2375,
            "drawnRed": 1,
            "reportedDrawn": 7,
            "compLie": -1,
            "compUnifLie": false,
            "compDetect": 0.19801011199999996,
            "callBS": true,
            "playerTrialScore": 5,
            "oppTrialScore": -5,
            "playerTotalScore": 73,
            "oppTotalScore": -8,
            "waitTime": 5436.9362051689195,
            "responseTime": 2519,
            "catchQuestion": "How many red marbles did your opponent report drawing?",
            "catchKey": -1,
            "catchResponse": -1,
            "catchResponseTime": -1,
            "pseudoRound": true,
            "trialTime": 9573
        },
        {
            "exptPart": "trial",
            "trialNumber": 16,
            "roleCurrent": "bullshitter",
            "marblesSampled": 10,
            "asymm": false,
            "probBullshitterRed": 0.8,
            "probBullshitDetectorRed": 0.8,
            "probGlobal": 0.8,
            "drawnRed": 10,
            "reportedDrawn": 10,
            "compLie": -1,
            "compUnifLie": false,
            "compDetect": 0.8758096384000003,
            "callBS": true,
            "playerTrialScore": 10,
            "oppTrialScore": -5,
            "playerTotalScore": 83,
            "oppTotalScore": -13,
            "waitTime": 2873.0556402116154,
            "responseTime": 3298,
            "catchQuestion": "How many red marbles did your opponent report drawing?",
            "catchKey": -1,
            "catchResponse": -1,
            "catchResponseTime": -1,
            "pseudoRound": true,
            "trialTime": 10806
        },
        {
            "exptPart": "trial",
            "trialNumber": 17,
            "roleCurrent": "bullshitDetector",
            "marblesSampled": 10,
            "asymm": true,
            "probBullshitterRed": 0.5,
            "probBullshitDetectorRed": 0.2,
            "probGlobal": 0.48125,
            "drawnRed": 7,
            "reportedDrawn": 7,
            "compLie": 2,
            "compUnifLie": false,
            "compDetect": -1,
            "callBS": true,
            "playerTrialScore": -2,
            "oppTrialScore": 7,
            "playerTotalScore": 81,
            "oppTotalScore": -6,
            "waitTime": 5815.948339902108,
            "responseTime": 4016,
            "catchQuestion": "How many red marbles did your opponent report drawing?",
            "catchKey": -1,
            "catchResponse": -1,
            "catchResponseTime": -1,
            "pseudoRound": false,
            "trialTime": 11472
        },
        {
            "exptPart": "trial",
            "trialNumber": 18,
            "roleCurrent": "bullshitter",
            "marblesSampled": 10,
            "asymm": false,
            "probBullshitterRed": 0.5,
            "probBullshitDetectorRed": 0.5,
            "probGlobal": 0.5,
            "drawnRed": 2,
            "reportedDrawn": 2,
            "compLie": -1,
            "compUnifLie": false,
            "compDetect": -0.068359375,
            "callBS": false,
            "playerTrialScore": 2,
            "oppTrialScore": 8,
            "playerTotalScore": 83,
            "oppTotalScore": 2,
            "waitTime": 2457.4021265594956,
            "responseTime": 4334,
            "catchQuestion": "How many red marbles did you actually draw?",
            "catchKey": 2,
            "catchResponse": 2,
            "catchResponseTime": 2059,
            "pseudoRound": false,
            "trialTime": 14232
        },
        {
            "exptPart": "trial",
            "trialNumber": 19,
            "roleCurrent": "bullshitDetector",
            "marblesSampled": 10,
            "asymm": true,
            "probBullshitterRed": 0.2,
            "probBullshitDetectorRed": 0.8,
            "probGlobal": 0.2375,
            "drawnRed": 2,
            "reportedDrawn": 7,
            "compLie": 7,
            "compUnifLie": false,
            "compDetect": -1,
            "callBS": false,
            "playerTrialScore": 3,
            "oppTrialScore": 7,
            "playerTotalScore": 86,
            "oppTotalScore": 9,
            "waitTime": 6840.540415696587,
            "responseTime": 5930,
            "catchQuestion": "How many red marbles did your opponent report drawing?",
            "catchKey": 7,
            "catchResponse": 7,
            "catchResponseTime": 2897,
            "pseudoRound": false,
            "trialTime": 16992
        },
        {
            "exptPart": "trial",
            "trialNumber": 20,
            "roleCurrent": "bullshitter",
            "marblesSampled": 10,
            "asymm": true,
            "probBullshitterRed": 0.2,
            "probBullshitDetectorRed": 0.8,
            "probGlobal": 0.2375,
            "drawnRed": 5,
            "reportedDrawn": 5,
            "compLie": -1,
            "compUnifLie": false,
            "compDetect": -0.091396864,
            "callBS": false,
            "playerTrialScore": 5,
            "oppTrialScore": 5,
            "playerTotalScore": 91,
            "oppTotalScore": 14,
            "waitTime": 2340.184771293437,
            "responseTime": 3673,
            "catchQuestion": "How many red marbles did your opponent report drawing?",
            "catchKey": -1,
            "catchResponse": -1,
            "catchResponseTime": -1,
            "pseudoRound": true,
            "trialTime": 10685
        },
        {
            "exptPart": "trial",
            "trialNumber": 21,
            "roleCurrent": "bullshitDetector",
            "marblesSampled": 10,
            "asymm": true,
            "probBullshitterRed": 0.2,
            "probBullshitDetectorRed": 0.5,
            "probGlobal": 0.21875,
            "drawnRed": 0,
            "reportedDrawn": 5,
            "compLie": 5,
            "compUnifLie": false,
            "compDetect": -1,
            "callBS": true,
            "playerTrialScore": 5,
            "oppTrialScore": -5,
            "playerTotalScore": 96,
            "oppTotalScore": 9,
            "waitTime": 6714.0898449399965,
            "responseTime": 2982,
            "catchQuestion": "How many red marbles did your opponent report drawing?",
            "catchKey": -1,
            "catchResponse": -1,
            "catchResponseTime": -1,
            "pseudoRound": false,
            "trialTime": 11607
        },
        {
            "exptPart": "trial",
            "trialNumber": 22,
            "roleCurrent": "bullshitter",
            "marblesSampled": 10,
            "asymm": true,
            "probBullshitterRed": 0.2,
            "probBullshitDetectorRed": 0.8,
            "probGlobal": 0.2375,
            "drawnRed": 2,
            "reportedDrawn": 2,
            "compLie": -1,
            "compUnifLie": false,
            "compDetect": -0.12411243519999997,
            "callBS": false,
            "playerTrialScore": 2,
            "oppTrialScore": 8,
            "playerTotalScore": 98,
            "oppTotalScore": 17,
            "waitTime": 2660.8450792350886,
            "responseTime": 3042,
            "catchQuestion": "How many red marbles did you actually draw?",
            "catchKey": 2,
            "catchResponse": 2,
            "catchResponseTime": 3283,
            "pseudoRound": true,
            "trialTime": 13972
        },
        {
            "exptPart": "trial",
            "trialNumber": 23,
            "roleCurrent": "bullshitDetector",
            "marblesSampled": 10,
            "asymm": false,
            "probBullshitterRed": 0.5,
            "probBullshitDetectorRed": 0.5,
            "probGlobal": 0.5,
            "drawnRed": 6,
            "reportedDrawn": 4,
            "compLie": -1,
            "compUnifLie": true,
            "compDetect": -0.12411243519999997,
            "callBS": false,
            "playerTrialScore": 6,
            "oppTrialScore": 4,
            "playerTotalScore": 104,
            "oppTotalScore": 21,
            "waitTime": 5897.12677744081,
            "responseTime": 4928,
            "catchQuestion": "How many red marbles did you actually draw?",
            "catchKey": -1,
            "catchResponse": -1,
            "catchResponseTime": -1,
            "pseudoRound": false,
            "trialTime": 12122
        },
        {
            "exptPart": "trial",
            "trialNumber": 24,
            "roleCurrent": "bullshitter",
            "marblesSampled": 10,
            "asymm": true,
            "probBullshitterRed": 0.8,
            "probBullshitDetectorRed": 0.2,
            "probGlobal": 0.7625,
            "drawnRed": 8,
            "reportedDrawn": 8,
            "compLie": -1,
            "compUnifLie": false,
            "compDetect": 0.8221962752000003,
            "callBS": false,
            "playerTrialScore": 8,
            "oppTrialScore": 2,
            "playerTotalScore": 112,
            "oppTotalScore": 23,
            "waitTime": 2917.4560074779183,
            "responseTime": 2749,
            "catchQuestion": "How many red marbles did you actually draw?",
            "catchKey": -1,
            "catchResponse": -1,
            "catchResponseTime": -1,
            "pseudoRound": false,
            "trialTime": 10269
        },
        {
            "exptPart": "trial",
            "trialNumber": 25,
            "roleCurrent": "bullshitDetector",
            "marblesSampled": 10,
            "asymm": true,
            "probBullshitterRed": 0.8,
            "probBullshitDetectorRed": 0.5,
            "probGlobal": 0.78125,
            "drawnRed": 7,
            "reportedDrawn": 5,
            "compLie": -1,
            "compUnifLie": true,
            "compDetect": 0.8221962752000003,
            "callBS": true,
            "playerTrialScore": 5,
            "oppTrialScore": -5,
            "playerTotalScore": 117,
            "oppTotalScore": 18,
            "waitTime": 6951.738327479612,
            "responseTime": 3404,
            "catchQuestion": "How many red marbles did you actually draw?",
            "catchKey": -1,
            "catchResponse": -1,
            "catchResponseTime": -1,
            "pseudoRound": false,
            "trialTime": 12454
        },
        {
            "exptPart": "trial",
            "trialNumber": 26,
            "roleCurrent": "bullshitter",
            "marblesSampled": 10,
            "asymm": true,
            "probBullshitterRed": 0.8,
            "probBullshitDetectorRed": 0.5,
            "probGlobal": 0.78125,
            "drawnRed": 8,
            "reportedDrawn": 8,
            "compLie": -1,
            "compUnifLie": false,
            "compDetect": 0.8662109375,
            "callBS": true,
            "playerTrialScore": 8,
            "oppTrialScore": -3,
            "playerTotalScore": 125,
            "oppTotalScore": 15,
            "waitTime": 3168.4793461795757,
            "responseTime": 2372,
            "catchQuestion": "How many red marbles did you actually draw?",
            "catchKey": -1,
            "catchResponse": -1,
            "catchResponseTime": -1,
            "pseudoRound": false,
            "trialTime": 10453
        },
        {
            "exptPart": "trial",
            "trialNumber": 27,
            "roleCurrent": "bullshitDetector",
            "marblesSampled": 10,
            "asymm": true,
            "probBullshitterRed": 0.8,
            "probBullshitDetectorRed": 0.5,
            "probGlobal": 0.78125,
            "drawnRed": 9,
            "reportedDrawn": 9,
            "compLie": 6,
            "compUnifLie": false,
            "compDetect": -1,
            "callBS": true,
            "playerTrialScore": -4,
            "oppTrialScore": 9,
            "playerTotalScore": 121,
            "oppTotalScore": 24,
            "waitTime": 5716.7519981068435,
            "responseTime": 1656,
            "catchQuestion": "How many red marbles did you actually draw?",
            "catchKey": -1,
            "catchResponse": -1,
            "catchResponseTime": -1,
            "pseudoRound": false,
            "trialTime": 8781
        },
        {
            "exptPart": "trial",
            "trialNumber": 28,
            "roleCurrent": "bullshitter",
            "marblesSampled": 10,
            "asymm": true,
            "probBullshitterRed": 0.5,
            "probBullshitDetectorRed": 0.2,
            "probGlobal": 0.48125,
            "drawnRed": 5,
            "reportedDrawn": 5,
            "compLie": -1,
            "compUnifLie": false,
            "compDetect": 0.8158310912000003,
            "callBS": true,
            "playerTrialScore": 5,
            "oppTrialScore": 0,
            "playerTotalScore": 126,
            "oppTotalScore": 24,
            "waitTime": 2281.1122400107106,
            "responseTime": 3739,
            "catchQuestion": "How many red marbles did you actually draw?",
            "catchKey": -1,
            "catchResponse": -1,
            "catchResponseTime": -1,
            "pseudoRound": false,
            "trialTime": 11453
        },
        {
            "exptPart": "trial",
            "trialNumber": 29,
            "roleCurrent": "bullshitDetector",
            "marblesSampled": 10,
            "asymm": true,
            "probBullshitterRed": 0.5,
            "probBullshitDetectorRed": 0.2,
            "probGlobal": 0.48125,
            "drawnRed": 5,
            "reportedDrawn": 5,
            "compLie": 3,
            "compUnifLie": false,
            "compDetect": -1,
            "callBS": true,
            "playerTrialScore": 0,
            "oppTrialScore": 5,
            "playerTotalScore": 126,
            "oppTotalScore": 29,
            "waitTime": 7481.072555508525,
            "responseTime": 1458,
            "catchQuestion": "How many red marbles did you actually draw?",
            "catchKey": -1,
            "catchResponse": -1,
            "catchResponseTime": -1,
            "pseudoRound": false,
            "trialTime": 10492
        },
        {
            "exptPart": "trial",
            "trialNumber": 30,
            "roleCurrent": "bullshitter",
            "marblesSampled": 10,
            "asymm": false,
            "probBullshitterRed": 0.5,
            "probBullshitDetectorRed": 0.5,
            "probGlobal": 0.5,
            "drawnRed": 7,
            "reportedDrawn": 7,
            "compLie": -1,
            "compUnifLie": false,
            "compDetect": 0.822265625,
            "callBS": false,
            "playerTrialScore": 7,
            "oppTrialScore": 3,
            "playerTotalScore": 133,
            "oppTotalScore": 32,
            "waitTime": 2433.9721642096965,
            "responseTime": 2968,
            "catchQuestion": "How many red marbles did you actually draw?",
            "catchKey": -1,
            "catchResponse": -1,
            "catchResponseTime": -1,
            "pseudoRound": false,
            "trialTime": 10590
        },
        {
            "exptPart": "trial",
            "trialNumber": 31,
            "roleCurrent": "bullshitDetector",
            "marblesSampled": 10,
            "asymm": true,
            "probBullshitterRed": 0.2,
            "probBullshitDetectorRed": 0.8,
            "probGlobal": 0.2375,
            "drawnRed": 4,
            "reportedDrawn": 8,
            "compLie": 8,
            "compUnifLie": false,
            "compDetect": -1,
            "callBS": true,
            "playerTrialScore": 5,
            "oppTrialScore": -5,
            "playerTotalScore": 138,
            "oppTotalScore": 27,
            "waitTime": 5186.104074782033,
            "responseTime": 6557,
            "catchQuestion": "How many red marbles did your opponent report drawing?",
            "catchKey": 8,
            "catchResponse": 9,
            "catchResponseTime": 5545,
            "pseudoRound": false,
            "trialTime": 22045
        },
        {
            "exptPart": "trial",
            "trialNumber": 32,
            "roleCurrent": "bullshitter",
            "marblesSampled": 10,
            "asymm": true,
            "probBullshitterRed": 0.8,
            "probBullshitDetectorRed": 0.5,
            "probGlobal": 0.78125,
            "drawnRed": 4,
            "reportedDrawn": 4,
            "compLie": -1,
            "compUnifLie": false,
            "compDetect": 0.25390625,
            "callBS": true,
            "playerTrialScore": 4,
            "oppTrialScore": 1,
            "playerTotalScore": 142,
            "oppTotalScore": 28,
            "waitTime": 2311.1067433055223,
            "responseTime": 3154,
            "catchQuestion": "How many red marbles did your opponent report drawing?",
            "catchKey": -1,
            "catchResponse": -1,
            "catchResponseTime": -1,
            "pseudoRound": true,
            "trialTime": 10716
        },
        {
            "exptPart": "trial",
            "trialNumber": 33,
            "roleCurrent": "bullshitDetector",
            "marblesSampled": 10,
            "asymm": true,
            "probBullshitterRed": 0.2,
            "probBullshitDetectorRed": 0.8,
            "probGlobal": 0.2375,
            "drawnRed": 1,
            "reportedDrawn": 7,
            "compLie": 7,
            "compUnifLie": false,
            "compDetect": -1,
            "callBS": false,
            "playerTrialScore": 3,
            "oppTrialScore": 7,
            "playerTotalScore": 145,
            "oppTotalScore": 35,
            "waitTime": 7040.054432246974,
            "responseTime": 1268,
            "catchQuestion": "How many red marbles did your opponent report drawing?",
            "catchKey": -1,
            "catchResponse": -1,
            "catchResponseTime": -1,
            "pseudoRound": false,
            "trialTime": 10438
        },
        {
            "exptPart": "trial",
            "trialNumber": 34,
            "roleCurrent": "bullshitter",
            "marblesSampled": 10,
            "asymm": true,
            "probBullshitterRed": 0.2,
            "probBullshitDetectorRed": 0.8,
            "probGlobal": 0.2375,
            "drawnRed": 4,
            "reportedDrawn": 4,
            "compLie": -1,
            "compUnifLie": false,
            "compDetect": -0.11782097919999997,
            "callBS": false,
            "playerTrialScore": 4,
            "oppTrialScore": 6,
            "playerTotalScore": 149,
            "oppTotalScore": 41,
            "waitTime": 2646.3740790569072,
            "responseTime": 3156,
            "catchQuestion": "How many red marbles did your opponent report drawing?",
            "catchKey": -1,
            "catchResponse": -1,
            "catchResponseTime": -1,
            "pseudoRound": false,
            "trialTime": 10840
        },
        {
            "exptPart": "trial",
            "trialNumber": 35,
            "roleCurrent": "bullshitDetector",
            "marblesSampled": 10,
            "asymm": false,
            "probBullshitterRed": 0.5,
            "probBullshitDetectorRed": 0.5,
            "probGlobal": 0.5,
            "drawnRed": 6,
            "reportedDrawn": 6,
            "compLie": 6,
            "compUnifLie": false,
            "compDetect": -1,
            "callBS": true,
            "playerTrialScore": -1,
            "oppTrialScore": 6,
            "playerTotalScore": 148,
            "oppTotalScore": 47,
            "waitTime": 6235.125652638169,
            "responseTime": 6938,
            "catchQuestion": "How many red marbles did your opponent report drawing?",
            "catchKey": -1,
            "catchResponse": -1,
            "catchResponseTime": -1,
            "pseudoRound": false,
            "trialTime": 14720
        },
        {
            "exptPart": "trial",
            "trialNumber": 36,
            "roleCurrent": "bullshitter",
            "marblesSampled": 10,
            "asymm": true,
            "probBullshitterRed": 0.5,
            "probBullshitDetectorRed": 0.2,
            "probGlobal": 0.48125,
            "drawnRed": 5,
            "reportedDrawn": 5,
            "compLie": -1,
            "compUnifLie": false,
            "compDetect": 0.8158310912000003,
            "callBS": true,
            "playerTrialScore": 5,
            "oppTrialScore": 0,
            "playerTotalScore": 153,
            "oppTotalScore": 47,
            "waitTime": 2682.2068509363426,
            "responseTime": 3377,
            "catchQuestion": "How many red marbles did your opponent report drawing?",
            "catchKey": -1,
            "catchResponse": -1,
            "catchResponseTime": -1,
            "pseudoRound": false,
            "trialTime": 10509
        },
        {
            "exptPart": "trial",
            "trialNumber": 37,
            "roleCurrent": "bullshitDetector",
            "marblesSampled": 10,
            "asymm": false,
            "probBullshitterRed": 0.8,
            "probBullshitDetectorRed": 0.8,
            "probGlobal": 0.8,
            "drawnRed": 7,
            "reportedDrawn": 9,
            "compLie": 9,
            "compUnifLie": false,
            "compDetect": -1,
            "callBS": false,
            "playerTrialScore": 1,
            "oppTrialScore": 9,
            "playerTotalScore": 154,
            "oppTotalScore": 56,
            "waitTime": 6118.537707213375,
            "responseTime": 1934,
            "catchQuestion": "How many red marbles did your opponent report drawing?",
            "catchKey": -1,
            "catchResponse": -1,
            "catchResponseTime": -1,
            "pseudoRound": false,
            "trialTime": 9390
        },
        {
            "exptPart": "trial",
            "trialNumber": 38,
            "roleCurrent": "bullshitter",
            "marblesSampled": 10,
            "asymm": true,
            "probBullshitterRed": 0.5,
            "probBullshitDetectorRed": 0.8,
            "probGlobal": 0.51875,
            "drawnRed": 7,
            "reportedDrawn": 7,
            "compLie": -1,
            "compUnifLie": false,
            "compDetect": 0.19801011199999996,
            "callBS": false,
            "playerTrialScore": 7,
            "oppTrialScore": 3,
            "playerTotalScore": 161,
            "oppTotalScore": 59,
            "waitTime": 2447.1565972478716,
            "responseTime": 3218,
            "catchQuestion": "How many red marbles did your opponent report drawing?",
            "catchKey": -1,
            "catchResponse": -1,
            "catchResponseTime": -1,
            "pseudoRound": false,
            "trialTime": 10110
        },
        {
            "exptPart": "trial",
            "trialNumber": 39,
            "roleCurrent": "bullshitDetector",
            "marblesSampled": 10,
            "asymm": false,
            "probBullshitterRed": 0.2,
            "probBullshitDetectorRed": 0.2,
            "probGlobal": 0.2,
            "drawnRed": 4,
            "reportedDrawn": 5,
            "compLie": -1,
            "compUnifLie": false,
            "compDetect": 0.19801011199999996,
            "callBS": true,
            "playerTrialScore": 5,
            "oppTrialScore": -5,
            "playerTotalScore": 166,
            "oppTotalScore": 54,
            "waitTime": 6408.148276853279,
            "responseTime": 1787,
            "catchQuestion": "How many red marbles did your opponent report drawing?",
            "catchKey": -1,
            "catchResponse": -1,
            "catchResponseTime": -1,
            "pseudoRound": true,
            "trialTime": 9625
        },
        {
            "exptPart": "trial",
            "trialNumber": 40,
            "roleCurrent": "bullshitter",
            "marblesSampled": 10,
            "asymm": true,
            "probBullshitterRed": 0.2,
            "probBullshitDetectorRed": 0.5,
            "probGlobal": 0.21875,
            "drawnRed": 2,
            "reportedDrawn": 2,
            "compLie": -1,
            "compUnifLie": false,
            "compDetect": -0.068359375,
            "callBS": false,
            "playerTrialScore": 2,
            "oppTrialScore": 8,
            "playerTotalScore": 168,
            "oppTotalScore": 62,
            "waitTime": 2508.7254106460414,
            "responseTime": 2276,
            "catchQuestion": "How many red marbles did your opponent report drawing?",
            "catchKey": -1,
            "catchResponse": -1,
            "catchResponseTime": -1,
            "pseudoRound": false,
            "trialTime": 10501
        },
        {
            "exptPart": "trial",
            "trialNumber": 41,
            "roleCurrent": "bullshitDetector",
            "marblesSampled": 10,
            "asymm": true,
            "probBullshitterRed": 0.5,
            "probBullshitDetectorRed": 0.8,
            "probGlobal": 0.51875,
            "drawnRed": 6,
            "reportedDrawn": 8,
            "compLie": 8,
            "compUnifLie": false,
            "compDetect": -1,
            "callBS": false,
            "playerTrialScore": 2,
            "oppTrialScore": 8,
            "playerTotalScore": 170,
            "oppTotalScore": 70,
            "waitTime": 6903.448385885713,
            "responseTime": 4458,
            "catchQuestion": "How many red marbles did your opponent report drawing?",
            "catchKey": 8,
            "catchResponse": 8,
            "catchResponseTime": 3184,
            "pseudoRound": false,
            "trialTime": 16082
        },
        {
            "exptPart": "trial",
            "trialNumber": 42,
            "roleCurrent": "bullshitter",
            "marblesSampled": 10,
            "asymm": true,
            "probBullshitterRed": 0.5,
            "probBullshitDetectorRed": 0.2,
            "probGlobal": 0.48125,
            "drawnRed": 4,
            "reportedDrawn": 4,
            "compLie": -1,
            "compUnifLie": false,
            "compDetect": 0.7894069760000003,
            "callBS": true,
            "playerTrialScore": 4,
            "oppTrialScore": 1,
            "playerTotalScore": 174,
            "oppTotalScore": 71,
            "waitTime": 2259.650357889377,
            "responseTime": 3566,
            "catchQuestion": "How many red marbles did your opponent report drawing?",
            "catchKey": -1,
            "catchResponse": -1,
            "catchResponseTime": -1,
            "pseudoRound": false,
            "trialTime": 12609
        },
        {
            "exptPart": "trial",
            "trialNumber": 43,
            "roleCurrent": "bullshitDetector",
            "marblesSampled": 10,
            "asymm": true,
            "probBullshitterRed": 0.5,
            "probBullshitDetectorRed": 0.8,
            "probGlobal": 0.51875,
            "drawnRed": 7,
            "reportedDrawn": 9,
            "compLie": 9,
            "compUnifLie": false,
            "compDetect": -1,
            "callBS": false,
            "playerTrialScore": 1,
            "oppTrialScore": 9,
            "playerTotalScore": 175,
            "oppTotalScore": 80,
            "waitTime": 5922.523074099763,
            "responseTime": 3997,
            "catchQuestion": "How many red marbles did your opponent report drawing?",
            "catchKey": -1,
            "catchResponse": -1,
            "catchResponseTime": -1,
            "pseudoRound": false,
            "trialTime": 11254
        },
        {
            "exptPart": "trial",
            "trialNumber": 44,
            "roleCurrent": "bullshitter",
            "marblesSampled": 10,
            "asymm": false,
            "probBullshitterRed": 0.2,
            "probBullshitDetectorRed": 0.2,
            "probGlobal": 0.2,
            "drawnRed": 4,
            "reportedDrawn": 3,
            "compLie": -1,
            "compUnifLie": false,
            "compDetect": 0.7013265920000002,
            "callBS": true,
            "playerTrialScore": -5,
            "oppTrialScore": 5,
            "playerTotalScore": 170,
            "oppTotalScore": 85,
            "waitTime": 3192.091501733711,
            "responseTime": 8754,
            "catchQuestion": "How many red marbles did your opponent report drawing?",
            "catchKey": -1,
            "catchResponse": -1,
            "catchResponseTime": -1,
            "pseudoRound": false,
            "trialTime": 17478
        },
        {
            "exptPart": "trial",
            "trialNumber": 45,
            "roleCurrent": "bullshitDetector",
            "marblesSampled": 10,
            "asymm": false,
            "probBullshitterRed": 0.8,
            "probBullshitDetectorRed": 0.8,
            "probGlobal": 0.8,
            "drawnRed": 6,
            "reportedDrawn": 8,
            "compLie": 8,
            "compUnifLie": false,
            "compDetect": -1,
            "callBS": true,
            "playerTrialScore": 5,
            "oppTrialScore": -5,
            "playerTotalScore": 175,
            "oppTotalScore": 80,
            "waitTime": 5378.246510119327,
            "responseTime": 4087,
            "catchQuestion": "How many red marbles did your opponent report drawing?",
            "catchKey": 8,
            "catchResponse": 8,
            "catchResponseTime": 6331,
            "pseudoRound": false,
            "trialTime": 17558
        },
        {
            "exptPart": "trial",
            "trialNumber": 46,
            "roleCurrent": "bullshitter",
            "marblesSampled": 10,
            "asymm": true,
            "probBullshitterRed": 0.2,
            "probBullshitDetectorRed": 0.5,
            "probGlobal": 0.21875,
            "drawnRed": 2,
            "reportedDrawn": 3,
            "compLie": -1,
            "compUnifLie": false,
            "compDetect": 0.048828125,
            "callBS": false,
            "playerTrialScore": 3,
            "oppTrialScore": 7,
            "playerTotalScore": 178,
            "oppTotalScore": 87,
            "waitTime": 2292.669658673937,
            "responseTime": 6570,
            "catchQuestion": "How many red marbles did your opponent report drawing?",
            "catchKey": -1,
            "catchResponse": -1,
            "catchResponseTime": -1,
            "pseudoRound": false,
            "trialTime": 13399
        },
        {
            "exptPart": "trial",
            "trialNumber": 47,
            "roleCurrent": "bullshitDetector",
            "marblesSampled": 10,
            "asymm": true,
            "probBullshitterRed": 0.8,
            "probBullshitDetectorRed": 0.2,
            "probGlobal": 0.7625,
            "drawnRed": 8,
            "reportedDrawn": 0,
            "compLie": -1,
            "compUnifLie": false,
            "compDetect": 0.048828125,
            "callBS": true,
            "playerTrialScore": 5,
            "oppTrialScore": -5,
            "playerTotalScore": 183,
            "oppTotalScore": 82,
            "waitTime": 6816.084573508488,
            "responseTime": 2713,
            "catchQuestion": "How many red marbles did your opponent report drawing?",
            "catchKey": -1,
            "catchResponse": -1,
            "catchResponseTime": -1,
            "pseudoRound": true,
            "trialTime": 11278
        },
        {
            "exptPart": "trial",
            "trialNumber": 48,
            "roleCurrent": "bullshitter",
            "marblesSampled": 10,
            "asymm": false,
            "probBullshitterRed": 0.8,
            "probBullshitDetectorRed": 0.8,
            "probGlobal": 0.8,
            "drawnRed": 8,
            "reportedDrawn": 9,
            "compLie": -1,
            "compUnifLie": false,
            "compDetect": 0.7684354560000002,
            "callBS": false,
            "playerTrialScore": 9,
            "oppTrialScore": 1,
            "playerTotalScore": 192,
            "oppTotalScore": 83,
            "waitTime": 2666.166692659286,
            "responseTime": 4792,
            "catchQuestion": "How many red marbles did your opponent report drawing?",
            "catchKey": -1,
            "catchResponse": -1,
            "catchResponseTime": -1,
            "pseudoRound": false,
            "trialTime": 14372
        },
        {
            "exptPart": "trial",
            "trialNumber": 49,
            "roleCurrent": "bullshitDetector",
            "marblesSampled": 10,
            "asymm": false,
            "probBullshitterRed": 0.8,
            "probBullshitDetectorRed": 0.8,
            "probGlobal": 0.8,
            "drawnRed": 5,
            "reportedDrawn": 9,
            "compLie": 9,
            "compUnifLie": false,
            "compDetect": -1,
            "callBS": true,
            "playerTrialScore": 5,
            "oppTrialScore": -5,
            "playerTotalScore": 197,
            "oppTotalScore": 78,
            "waitTime": 5568.38888623572,
            "responseTime": 2599,
            "catchQuestion": "How many red marbles did your opponent report drawing?",
            "catchKey": -1,
            "catchResponse": -1,
            "catchResponseTime": -1,
            "pseudoRound": false,
            "trialTime": 9743
        },
        {
            "exptPart": "trial",
            "trialNumber": 50,
            "roleCurrent": "bullshitter",
            "marblesSampled": 10,
            "asymm": true,
            "probBullshitterRed": 0.8,
            "probBullshitDetectorRed": 0.2,
            "probGlobal": 0.7625,
            "drawnRed": 0,
            "reportedDrawn": 1,
            "compLie": -1,
            "compUnifLie": false,
            "compDetect": 0.19801011199999963,
            "callBS": false,
            "playerTrialScore": 1,
            "oppTrialScore": 9,
            "playerTotalScore": 198,
            "oppTotalScore": 87,
            "waitTime": 2408.404552341928,
            "responseTime": 5140,
            "catchQuestion": "How many red marbles did your opponent report drawing?",
            "catchKey": -1,
            "catchResponse": -1,
            "catchResponseTime": -1,
            "pseudoRound": true,
            "trialTime": 12503
        },
        {
            "exptPart": "trial",
            "trialNumber": 51,
            "roleCurrent": "bullshitDetector",
            "marblesSampled": 10,
            "asymm": true,
            "probBullshitterRed": 0.8,
            "probBullshitDetectorRed": 0.5,
            "probGlobal": 0.78125,
            "drawnRed": 8,
            "reportedDrawn": 8,
            "compLie": 6,
            "compUnifLie": false,
            "compDetect": -1,
            "callBS": false,
            "playerTrialScore": 2,
            "oppTrialScore": 8,
            "playerTotalScore": 200,
            "oppTotalScore": 95,
            "waitTime": 7461.838506380985,
            "responseTime": 2058,
            "catchQuestion": "How many red marbles did your opponent report drawing?",
            "catchKey": -1,
            "catchResponse": -1,
            "catchResponseTime": -1,
            "pseudoRound": false,
            "trialTime": 10751
        },
        {
            "exptPart": "trial",
            "trialNumber": 52,
            "roleCurrent": "bullshitter",
            "marblesSampled": 10,
            "asymm": true,
            "probBullshitterRed": 0.2,
            "probBullshitDetectorRed": 0.8,
            "probGlobal": 0.2375,
            "drawnRed": 1,
            "reportedDrawn": 4,
            "compLie": -1,
            "compUnifLie": false,
            "compDetect": -0.11782097919999997,
            "callBS": false,
            "playerTrialScore": 4,
            "oppTrialScore": 6,
            "playerTotalScore": 204,
            "oppTotalScore": 101,
            "waitTime": 2665.974300722353,
            "responseTime": 1675,
            "catchQuestion": "How many red marbles did your opponent report drawing?",
            "catchKey": -1,
            "catchResponse": -1,
            "catchResponseTime": -1,
            "pseudoRound": false,
            "trialTime": 11438
        },
        {
            "exptPart": "trial",
            "trialNumber": 53,
            "roleCurrent": "bullshitDetector",
            "marblesSampled": 10,
            "asymm": true,
            "probBullshitterRed": 0.5,
            "probBullshitDetectorRed": 0.2,
            "probGlobal": 0.48125,
            "drawnRed": 4,
            "reportedDrawn": 4,
            "compLie": 2,
            "compUnifLie": false,
            "compDetect": -1,
            "callBS": false,
            "playerTrialScore": 6,
            "oppTrialScore": 4,
            "playerTotalScore": 210,
            "oppTotalScore": 105,
            "waitTime": 6837.38873750355,
            "responseTime": 3419,
            "catchQuestion": "How many red marbles did your opponent report drawing?",
            "catchKey": 4,
            "catchResponse": 4,
            "catchResponseTime": 2559,
            "pseudoRound": false,
            "trialTime": 14062
        },
        {
            "exptPart": "trial",
            "trialNumber": 54,
            "roleCurrent": "bullshitter",
            "marblesSampled": 10,
            "asymm": true,
            "probBullshitterRed": 0.5,
            "probBullshitDetectorRed": 0.8,
            "probGlobal": 0.51875,
            "drawnRed": 7,
            "reportedDrawn": 6,
            "compLie": -1,
            "compUnifLie": false,
            "compDetect": -0.0033164800000000383,
            "callBS": false,
            "playerTrialScore": 6,
            "oppTrialScore": 4,
            "playerTotalScore": 216,
            "oppTotalScore": 109,
            "waitTime": 2154.360501786651,
            "responseTime": 3727,
            "catchQuestion": "How many red marbles did your opponent report drawing?",
            "catchKey": -1,
            "catchResponse": -1,
            "catchResponseTime": -1,
            "pseudoRound": false,
            "trialTime": 10804
        },
        {
            "exptPart": "trial",
            "trialNumber": 55,
            "roleCurrent": "bullshitDetector",
            "marblesSampled": 10,
            "asymm": false,
            "probBullshitterRed": 0.5,
            "probBullshitDetectorRed": 0.5,
            "probGlobal": 0.5,
            "drawnRed": 7,
            "reportedDrawn": 7,
            "compLie": 5,
            "compUnifLie": false,
            "compDetect": -1,
            "callBS": true,
            "playerTrialScore": -2,
            "oppTrialScore": 7,
            "playerTotalScore": 214,
            "oppTotalScore": 116,
            "waitTime": 6716.038036453903,
            "responseTime": 2841,
            "catchQuestion": "What was the proportion of red to blue marbles from your perspective?",
            "catchKey": 50,
            "catchResponse": "35",
            "catchResponseTime": 5262,
            "pseudoRound": false,
            "trialTime": 17109
        },
        {
            "exptPart": "trial",
            "trialNumber": 56,
            "roleCurrent": "bullshitter",
            "marblesSampled": 10,
            "asymm": false,
            "probBullshitterRed": 0.8,
            "probBullshitDetectorRed": 0.8,
            "probGlobal": 0.8,
            "drawnRed": 8,
            "reportedDrawn": 8,
            "compLie": -1,
            "compUnifLie": false,
            "compDetect": 0.5,
            "callBS": false,
            "playerTrialScore": 8,
            "oppTrialScore": 2,
            "playerTotalScore": 222,
            "oppTotalScore": 118,
            "waitTime": 2800.016965738455,
            "responseTime": 3341,
            "catchQuestion": "What was the proportion of red to blue marbles from your perspective?",
            "catchKey": -1,
            "catchResponse": -1,
            "catchResponseTime": -1,
            "pseudoRound": false,
            "trialTime": 10605
        },
        {
            "exptPart": "trial",
            "trialNumber": 57,
            "roleCurrent": "bullshitDetector",
            "marblesSampled": 10,
            "asymm": true,
            "probBullshitterRed": 0.5,
            "probBullshitDetectorRed": 0.8,
            "probGlobal": 0.51875,
            "drawnRed": 6,
            "reportedDrawn": 7,
            "compLie": 7,
            "compUnifLie": false,
            "compDetect": -1,
            "callBS": false,
            "playerTrialScore": 3,
            "oppTrialScore": 7,
            "playerTotalScore": 225,
            "oppTotalScore": 125,
            "waitTime": 6459.967486959497,
            "responseTime": 2725,
            "catchQuestion": "What was the proportion of red to blue marbles from your perspective?",
            "catchKey": -1,
            "catchResponse": -1,
            "catchResponseTime": -1,
            "pseudoRound": false,
            "trialTime": 10907
        },
        {
            "exptPart": "trial",
            "trialNumber": 58,
            "roleCurrent": "bullshitter",
            "marblesSampled": 10,
            "asymm": false,
            "probBullshitterRed": 0.5,
            "probBullshitDetectorRed": 0.5,
            "probGlobal": 0.5,
            "drawnRed": 5,
            "reportedDrawn": 5,
            "compLie": -1,
            "compUnifLie": false,
            "compDetect": 0.5,
            "callBS": false,
            "playerTrialScore": 5,
            "oppTrialScore": 5,
            "playerTotalScore": 230,
            "oppTotalScore": 130,
            "waitTime": 2230.567383809468,
            "responseTime": 2680,
            "catchQuestion": "What was the proportion of red to blue marbles from your perspective?",
            "catchKey": -1,
            "catchResponse": -1,
            "catchResponseTime": -1,
            "pseudoRound": false,
            "trialTime": 10013
        },
        {
            "exptPart": "trial",
            "trialNumber": 59,
            "roleCurrent": "bullshitDetector",
            "marblesSampled": 10,
            "asymm": true,
            "probBullshitterRed": 0.2,
            "probBullshitDetectorRed": 0.5,
            "probGlobal": 0.21875,
            "drawnRed": 2,
            "reportedDrawn": 5,
            "compLie": -1,
            "compUnifLie": true,
            "compDetect": 0.5,
            "callBS": false,
            "playerTrialScore": 5,
            "oppTrialScore": 5,
            "playerTotalScore": 235,
            "oppTotalScore": 135,
            "waitTime": 5665.828404116541,
            "responseTime": 4348,
            "catchQuestion": "What was the proportion of red to blue marbles from your perspective?",
            "catchKey": -1,
            "catchResponse": -1,
            "catchResponseTime": -1,
            "pseudoRound": false,
            "trialTime": 11344
        },
        {
            "exptPart": "trial",
            "trialNumber": 60,
            "roleCurrent": "bullshitter",
            "marblesSampled": 10,
            "asymm": true,
            "probBullshitterRed": 0.8,
            "probBullshitDetectorRed": 0.2,
            "probGlobal": 0.7625,
            "drawnRed": 7,
            "reportedDrawn": 8,
            "compLie": -1,
            "compUnifLie": false,
            "compDetect": 0.8221962752000003,
            "callBS": false,
            "playerTrialScore": 8,
            "oppTrialScore": 2,
            "playerTotalScore": 243,
            "oppTotalScore": 137,
            "waitTime": 2403.8003203498592,
            "responseTime": 4879,
            "catchQuestion": "What was the proportion of red to blue marbles from your perspective?",
            "catchKey": -1,
            "catchResponse": -1,
            "catchResponseTime": -1,
            "pseudoRound": false,
            "trialTime": 11708
        },
        {
            "exptPart": "trial",
            "trialNumber": 61,
            "roleCurrent": "bullshitDetector",
            "marblesSampled": 10,
            "asymm": false,
            "probBullshitterRed": 0.8,
            "probBullshitDetectorRed": 0.8,
            "probGlobal": 0.8,
            "drawnRed": 8,
            "reportedDrawn": 9,
            "compLie": -1,
            "compUnifLie": false,
            "compDetect": 0.8221962752000003,
            "callBS": true,
            "playerTrialScore": 5,
            "oppTrialScore": -5,
            "playerTotalScore": 248,
            "oppTotalScore": 132,
            "waitTime": 6845.317559537494,
            "responseTime": 2624,
            "catchQuestion": "What was the proportion of red to blue marbles from your perspective?",
            "catchKey": -1,
            "catchResponse": -1,
            "catchResponseTime": -1,
            "pseudoRound": true,
            "trialTime": 10879
        },
        {
            "exptPart": "trial",
            "trialNumber": 62,
            "roleCurrent": "bullshitter",
            "marblesSampled": 10,
            "asymm": true,
            "probBullshitterRed": 0.8,
            "probBullshitDetectorRed": 0.5,
            "probGlobal": 0.78125,
            "drawnRed": 9,
            "reportedDrawn": 9,
            "compLie": -1,
            "compUnifLie": false,
            "compDetect": 0.8759765625,
            "callBS": true,
            "playerTrialScore": 9,
            "oppTrialScore": -4,
            "playerTotalScore": 257,
            "oppTotalScore": 128,
            "waitTime": 2239.554785204855,
            "responseTime": 2187,
            "catchQuestion": "What was the proportion of red to blue marbles from your perspective?",
            "catchKey": -1,
            "catchResponse": -1,
            "catchResponseTime": -1,
            "pseudoRound": false,
            "trialTime": 8879
        },
        {
            "exptPart": "trial",
            "trialNumber": 63,
            "roleCurrent": "bullshitDetector",
            "marblesSampled": 10,
            "asymm": true,
            "probBullshitterRed": 0.8,
            "probBullshitDetectorRed": 0.2,
            "probGlobal": 0.7625,
            "drawnRed": 10,
            "reportedDrawn": 3,
            "compLie": -1,
            "compUnifLie": true,
            "compDetect": 0.8759765625,
            "callBS": false,
            "playerTrialScore": 7,
            "oppTrialScore": 3,
            "playerTotalScore": 264,
            "oppTotalScore": 131,
            "waitTime": 5411.054052335243,
            "responseTime": 3154,
            "catchQuestion": "What was the proportion of red to blue marbles from your perspective?",
            "catchKey": -1,
            "catchResponse": -1,
            "catchResponseTime": -1,
            "pseudoRound": false,
            "trialTime": 9761
        },
        {
            "exptPart": "trial",
            "trialNumber": 64,
            "roleCurrent": "bullshitter",
            "marblesSampled": 10,
            "asymm": true,
            "probBullshitterRed": 0.5,
            "probBullshitDetectorRed": 0.2,
            "probGlobal": 0.48125,
            "drawnRed": 7,
            "reportedDrawn": 7,
            "compLie": -1,
            "compUnifLie": false,
            "compDetect": 0.8221225472000002,
            "callBS": true,
            "playerTrialScore": 7,
            "oppTrialScore": -2,
            "playerTotalScore": 271,
            "oppTotalScore": 129,
            "waitTime": 2624.9874699445054,
            "responseTime": 3063,
            "catchQuestion": "How many red marbles did you actually draw?",
            "catchKey": 7,
            "catchResponse": 7,
            "catchResponseTime": 1859,
            "pseudoRound": false,
            "trialTime": 12233
        },
        {
            "exptPart": "trial",
            "trialNumber": 65,
            "roleCurrent": "bullshitDetector",
            "marblesSampled": 10,
            "asymm": true,
            "probBullshitterRed": 0.8,
            "probBullshitDetectorRed": 0.5,
            "probGlobal": 0.78125,
            "drawnRed": 9,
            "reportedDrawn": 1,
            "compLie": -1,
            "compUnifLie": false,
            "compDetect": 0.8221225472000002,
            "callBS": true,
            "playerTrialScore": 5,
            "oppTrialScore": -5,
            "playerTotalScore": 276,
            "oppTotalScore": 124,
            "waitTime": 5536.7446319714945,
            "responseTime": 3120,
            "catchQuestion": "How many red marbles did you actually draw?",
            "catchKey": -1,
            "catchResponse": -1,
            "catchResponseTime": -1,
            "pseudoRound": true,
            "trialTime": 10112
        },
        {
            "exptPart": "trial",
            "trialNumber": 66,
            "roleCurrent": "bullshitter",
            "marblesSampled": 10,
            "asymm": false,
            "probBullshitterRed": 0.5,
            "probBullshitDetectorRed": 0.5,
            "probGlobal": 0.5,
            "drawnRed": 6,
            "reportedDrawn": 3,
            "compLie": -1,
            "compUnifLie": false,
            "compDetect": 0.048828125,
            "callBS": false,
            "playerTrialScore": 3,
            "oppTrialScore": 7,
            "playerTotalScore": 279,
            "oppTotalScore": 131,
            "waitTime": 3135.760462910456,
            "responseTime": 6201,
            "catchQuestion": "What was the proportion of red to blue marbles from your opponent's perspective?",
            "catchKey": 50,
            "catchResponse": "38",
            "catchResponseTime": 7663,
            "pseudoRound": false,
            "trialTime": 21776
        },
        {
            "exptPart": "trial",
            "trialNumber": 67,
            "roleCurrent": "bullshitDetector",
            "marblesSampled": 10,
            "asymm": true,
            "probBullshitterRed": 0.5,
            "probBullshitDetectorRed": 0.2,
            "probGlobal": 0.48125,
            "drawnRed": 5,
            "reportedDrawn": 4,
            "compLie": -1,
            "compUnifLie": false,
            "compDetect": 0.048828125,
            "callBS": false,
            "playerTrialScore": 6,
            "oppTrialScore": 4,
            "playerTotalScore": 285,
            "oppTotalScore": 135,
            "waitTime": 7400.556510562658,
            "responseTime": 2180,
            "catchQuestion": "What was the proportion of red to blue marbles from your opponent's perspective?",
            "catchKey": -1,
            "catchResponse": -1,
            "catchResponseTime": -1,
            "pseudoRound": true,
            "trialTime": 11181
        },
        {
            "exptPart": "trial",
            "trialNumber": 68,
            "roleCurrent": "bullshitter",
            "marblesSampled": 10,
            "asymm": false,
            "probBullshitterRed": 0.2,
            "probBullshitDetectorRed": 0.2,
            "probGlobal": 0.2,
            "drawnRed": 3,
            "reportedDrawn": 2,
            "compLie": -1,
            "compUnifLie": false,
            "compDetect": 0.5,
            "callBS": true,
            "playerTrialScore": -5,
            "oppTrialScore": 5,
            "playerTotalScore": 280,
            "oppTotalScore": 140,
            "waitTime": 2823.580334339276,
            "responseTime": 4541,
            "catchQuestion": "What was the proportion of red to blue marbles from your opponent's perspective?",
            "catchKey": -1,
            "catchResponse": -1,
            "catchResponseTime": -1,
            "pseudoRound": false,
            "trialTime": 12337
        },
        {
            "exptPart": "trial",
            "trialNumber": 69,
            "roleCurrent": "bullshitDetector",
            "marblesSampled": 10,
            "asymm": false,
            "probBullshitterRed": 0.5,
            "probBullshitDetectorRed": 0.5,
            "probGlobal": 0.5,
            "drawnRed": 5,
            "reportedDrawn": 8,
            "compLie": -1,
            "compUnifLie": false,
            "compDetect": 0.5,
            "callBS": true,
            "playerTrialScore": 5,
            "oppTrialScore": -5,
            "playerTotalScore": 285,
            "oppTotalScore": 135,
            "waitTime": 6187.712725922065,
            "responseTime": 4315,
            "catchQuestion": "What was the proportion of red to blue marbles from your opponent's perspective?",
            "catchKey": -1,
            "catchResponse": -1,
            "catchResponseTime": -1,
            "pseudoRound": true,
            "trialTime": 12228
        },
        {
            "exptPart": "trial",
            "trialNumber": 70,
            "roleCurrent": "bullshitter",
            "marblesSampled": 10,
            "asymm": false,
            "probBullshitterRed": 0.8,
            "probBullshitDetectorRed": 0.8,
            "probGlobal": 0.8,
            "drawnRed": 10,
            "reportedDrawn": 7,
            "compLie": -1,
            "compUnifLie": false,
            "compDetect": 0.19801011199999996,
            "callBS": false,
            "playerTrialScore": 7,
            "oppTrialScore": 3,
            "playerTotalScore": 292,
            "oppTotalScore": 138,
            "waitTime": 2845.268436657627,
            "responseTime": 6346,
            "catchQuestion": "What was the proportion of red to blue marbles from your opponent's perspective?",
            "catchKey": -1,
            "catchResponse": -1,
            "catchResponseTime": -1,
            "pseudoRound": false,
            "trialTime": 13661
        },
        {
            "exptPart": "trial",
            "trialNumber": 71,
            "roleCurrent": "bullshitDetector",
            "marblesSampled": 10,
            "asymm": true,
            "probBullshitterRed": 0.2,
            "probBullshitDetectorRed": 0.8,
            "probGlobal": 0.2375,
            "drawnRed": 4,
            "reportedDrawn": 2,
            "compLie": -1,
            "compUnifLie": true,
            "compDetect": 0.19801011199999996,
            "callBS": true,
            "playerTrialScore": 5,
            "oppTrialScore": -5,
            "playerTotalScore": 297,
            "oppTotalScore": 133,
            "waitTime": 7208.502781372258,
            "responseTime": 2974,
            "catchQuestion": "What was the proportion of red to blue marbles from your opponent's perspective?",
            "catchKey": -1,
            "catchResponse": -1,
            "catchResponseTime": -1,
            "pseudoRound": false,
            "trialTime": 11534
        },
        {
            "exptPart": "trial",
            "trialNumber": 72,
            "roleCurrent": "bullshitter",
            "marblesSampled": 10,
            "asymm": true,
            "probBullshitterRed": 0.2,
            "probBullshitDetectorRed": 0.5,
            "probGlobal": 0.21875,
            "drawnRed": 7,
            "reportedDrawn": 4,
            "compLie": -1,
            "compUnifLie": false,
            "compDetect": 0.25390625,
            "callBS": false,
            "playerTrialScore": 4,
            "oppTrialScore": 6,
            "playerTotalScore": 301,
            "oppTotalScore": 139,
            "waitTime": 2632.918285623354,
            "responseTime": 8073,
            "catchQuestion": "What was the proportion of red to blue marbles from your opponent's perspective?",
            "catchKey": -1,
            "catchResponse": -1,
            "catchResponseTime": -1,
            "pseudoRound": true,
            "trialTime": 15213
        },
        {
            "exptPart": "trial",
            "trialNumber": 73,
            "roleCurrent": "bullshitDetector",
            "marblesSampled": 10,
            "asymm": false,
            "probBullshitterRed": 0.2,
            "probBullshitDetectorRed": 0.2,
            "probGlobal": 0.2,
            "drawnRed": 1,
            "reportedDrawn": 3,
            "compLie": 3,
            "compUnifLie": false,
            "compDetect": -1,
            "callBS": false,
            "playerTrialScore": 7,
            "oppTrialScore": 3,
            "playerTotalScore": 308,
            "oppTotalScore": 142,
            "waitTime": 5511.112977691981,
            "responseTime": 7794,
            "catchQuestion": "What was the proportion of red to blue marbles from your opponent's perspective?",
            "catchKey": -1,
            "catchResponse": -1,
            "catchResponseTime": -1,
            "pseudoRound": false,
            "trialTime": 14593
        },
        {
            "exptPart": "trial",
            "trialNumber": 74,
            "roleCurrent": "bullshitter",
            "marblesSampled": 10,
            "asymm": false,
            "probBullshitterRed": 0.5,
            "probBullshitDetectorRed": 0.5,
            "probGlobal": 0.5,
            "drawnRed": 3,
            "reportedDrawn": 3,
            "compLie": -1,
            "compUnifLie": false,
            "compDetect": 0.048828125,
            "callBS": false,
            "playerTrialScore": 3,
            "oppTrialScore": 7,
            "playerTotalScore": 311,
            "oppTotalScore": 149,
            "waitTime": 3249.174497859045,
            "responseTime": 3571,
            "catchQuestion": "What was the proportion of red to blue marbles from your opponent's perspective?",
            "catchKey": -1,
            "catchResponse": -1,
            "catchResponseTime": -1,
            "pseudoRound": true,
            "trialTime": 11768
        },
        {
            "exptPart": "trial",
            "trialNumber": 75,
            "roleCurrent": "bullshitDetector",
            "marblesSampled": 10,
            "asymm": true,
            "probBullshitterRed": 0.8,
            "probBullshitDetectorRed": 0.2,
            "probGlobal": 0.7625,
            "drawnRed": 7,
            "reportedDrawn": 3,
            "compLie": -1,
            "compUnifLie": false,
            "compDetect": 0.048828125,
            "callBS": true,
            "playerTrialScore": 5,
            "oppTrialScore": -5,
            "playerTotalScore": 316,
            "oppTotalScore": 144,
            "waitTime": 6264.162817802276,
            "responseTime": 3488,
            "catchQuestion": "What was the proportion of red to blue marbles from your opponent's perspective?",
            "catchKey": -1,
            "catchResponse": -1,
            "catchResponseTime": -1,
            "pseudoRound": true,
            "trialTime": 11920
        },
        {
            "exptPart": "trial",
            "trialNumber": 76,
            "roleCurrent": "bullshitter",
            "marblesSampled": 10,
            "asymm": true,
            "probBullshitterRed": 0.2,
            "probBullshitDetectorRed": 0.5,
            "probGlobal": 0.21875,
            "drawnRed": 0,
            "reportedDrawn": 4,
            "compLie": -1,
            "compUnifLie": false,
            "compDetect": 0.25390625,
            "callBS": false,
            "playerTrialScore": 4,
            "oppTrialScore": 6,
            "playerTotalScore": 320,
            "oppTotalScore": 150,
            "waitTime": 2364.6285858783567,
            "responseTime": 5413,
            "catchQuestion": "What was the proportion of red to blue marbles from your opponent's perspective?",
            "catchKey": -1,
            "catchResponse": -1,
            "catchResponseTime": -1,
            "pseudoRound": false,
            "trialTime": 12303
        },
        {
            "exptPart": "trial",
            "trialNumber": 77,
            "roleCurrent": "bullshitDetector",
            "marblesSampled": 10,
            "asymm": true,
            "probBullshitterRed": 0.8,
            "probBullshitDetectorRed": 0.2,
            "probGlobal": 0.7625,
            "drawnRed": 8,
            "reportedDrawn": 1,
            "compLie": -1,
            "compUnifLie": true,
            "compDetect": 0.25390625,
            "callBS": true,
            "playerTrialScore": 5,
            "oppTrialScore": -5,
            "playerTotalScore": 325,
            "oppTotalScore": 145,
            "waitTime": 5424.618948485256,
            "responseTime": 3165,
            "catchQuestion": "What was the proportion of red to blue marbles from your opponent's perspective?",
            "catchKey": -1,
            "catchResponse": -1,
            "catchResponseTime": -1,
            "pseudoRound": false,
            "trialTime": 9886
        },
        {
            "exptPart": "trial",
            "trialNumber": 78,
            "roleCurrent": "bullshitter",
            "marblesSampled": 10,
            "asymm": true,
            "probBullshitterRed": 0.8,
            "probBullshitDetectorRed": 0.2,
            "probGlobal": 0.7625,
            "drawnRed": 9,
            "reportedDrawn": 2,
            "compLie": -1,
            "compUnifLie": false,
            "compDetect": 0.5,
            "callBS": true,
            "playerTrialScore": -5,
            "oppTrialScore": 5,
            "playerTotalScore": 320,
            "oppTotalScore": 150,
            "waitTime": 2515.49279778438,
            "responseTime": 6331,
            "catchQuestion": "What was the proportion of red to blue marbles from your opponent's perspective?",
            "catchKey": -1,
            "catchResponse": -1,
            "catchResponseTime": -1,
            "pseudoRound": false,
            "trialTime": 13540
        },
        {
            "exptPart": "trial",
            "trialNumber": 79,
            "roleCurrent": "bullshitDetector",
            "marblesSampled": 10,
            "asymm": true,
            "probBullshitterRed": 0.5,
            "probBullshitDetectorRed": 0.2,
            "probGlobal": 0.48125,
            "drawnRed": 3,
            "reportedDrawn": 3,
            "compLie": 1,
            "compUnifLie": false,
            "compDetect": -1,
            "callBS": false,
            "playerTrialScore": 7,
            "oppTrialScore": 3,
            "playerTotalScore": 327,
            "oppTotalScore": 153,
            "waitTime": 5537.292192324595,
            "responseTime": 3048,
            "catchQuestion": "What was the proportion of red to blue marbles from your opponent's perspective?",
            "catchKey": -1,
            "catchResponse": -1,
            "catchResponseTime": -1,
            "pseudoRound": false,
            "trialTime": 9950
        },
        {
            "exptPart": "trial",
            "trialNumber": 80,
            "roleCurrent": "bullshitter",
            "marblesSampled": 10,
            "asymm": true,
            "probBullshitterRed": 0.2,
            "probBullshitDetectorRed": 0.8,
            "probGlobal": 0.2375,
            "drawnRed": 3,
            "reportedDrawn": 9,
            "compLie": -1,
            "compUnifLie": false,
            "compDetect": 0.7684354560000002,
            "callBS": true,
            "playerTrialScore": -5,
            "oppTrialScore": 5,
            "playerTotalScore": 322,
            "oppTotalScore": 158,
            "waitTime": 2611.643412985156,
            "responseTime": 3515,
            "catchQuestion": "What was the proportion of red to blue marbles from your opponent's perspective?",
            "catchKey": -1,
            "catchResponse": -1,
            "catchResponseTime": -1,
            "pseudoRound": false,
            "trialTime": 11538
        },
        {
            "exptPart": "trial",
            "trialNumber": 81,
            "roleCurrent": "bullshitDetector",
            "marblesSampled": 10,
            "asymm": false,
            "probBullshitterRed": 0.8,
            "probBullshitDetectorRed": 0.8,
            "probGlobal": 0.8,
            "drawnRed": 8,
            "reportedDrawn": 3,
            "compLie": -1,
            "compUnifLie": true,
            "compDetect": 0.7684354560000002,
            "callBS": true,
            "playerTrialScore": 5,
            "oppTrialScore": -5,
            "playerTotalScore": 327,
            "oppTotalScore": 153,
            "waitTime": 7195.207498514898,
            "responseTime": 2991,
            "catchQuestion": "What was the proportion of red to blue marbles from your opponent's perspective?",
            "catchKey": -1,
            "catchResponse": -1,
            "catchResponseTime": -1,
            "pseudoRound": false,
            "trialTime": 11579
        },
        {
            "exptPart": "trial",
            "trialNumber": 82,
            "roleCurrent": "bullshitter",
            "marblesSampled": 10,
            "asymm": true,
            "probBullshitterRed": 0.5,
            "probBullshitDetectorRed": 0.2,
            "probGlobal": 0.48125,
            "drawnRed": 5,
            "reportedDrawn": 2,
            "compLie": -1,
            "compUnifLie": false,
            "compDetect": 0.5,
            "callBS": true,
            "playerTrialScore": -5,
            "oppTrialScore": 5,
            "playerTotalScore": 322,
            "oppTotalScore": 158,
            "waitTime": 2097.0920511002855,
            "responseTime": 6893,
            "catchQuestion": "What was the proportion of red to blue marbles from your opponent's perspective?",
            "catchKey": -1,
            "catchResponse": -1,
            "catchResponseTime": -1,
            "pseudoRound": false,
            "trialTime": 13782
        },
        {
            "exptPart": "trial",
            "trialNumber": 83,
            "roleCurrent": "bullshitDetector",
            "marblesSampled": 10,
            "asymm": false,
            "probBullshitterRed": 0.2,
            "probBullshitDetectorRed": 0.2,
            "probGlobal": 0.2,
            "drawnRed": 0,
            "reportedDrawn": 1,
            "compLie": 1,
            "compUnifLie": false,
            "compDetect": -1,
            "callBS": true,
            "playerTrialScore": 5,
            "oppTrialScore": -5,
            "playerTotalScore": 327,
            "oppTotalScore": 153,
            "waitTime": 6021.324412056329,
            "responseTime": 2852,
            "catchQuestion": "What was the proportion of red to blue marbles from your opponent's perspective?",
            "catchKey": -1,
            "catchResponse": -1,
            "catchResponseTime": -1,
            "pseudoRound": false,
            "trialTime": 10521
        },
        {
            "exptPart": "trial",
            "trialNumber": 84,
            "roleCurrent": "bullshitter",
            "marblesSampled": 10,
            "asymm": true,
            "probBullshitterRed": 0.2,
            "probBullshitDetectorRed": 0.8,
            "probGlobal": 0.2375,
            "drawnRed": 6,
            "reportedDrawn": 6,
            "compLie": -1,
            "compUnifLie": false,
            "compDetect": -0.0033164800000000383,
            "callBS": false,
            "playerTrialScore": 6,
            "oppTrialScore": 4,
            "playerTotalScore": 333,
            "oppTotalScore": 157,
            "waitTime": 2957.247626227865,
            "responseTime": 5491,
            "catchQuestion": "What was the proportion of red to blue marbles from your opponent's perspective?",
            "catchKey": -1,
            "catchResponse": -1,
            "catchResponseTime": -1,
            "pseudoRound": true,
            "trialTime": 13381
        },
        {
            "exptPart": "trial",
            "trialNumber": 85,
            "roleCurrent": "bullshitDetector",
            "marblesSampled": 10,
            "asymm": false,
            "probBullshitterRed": 0.5,
            "probBullshitDetectorRed": 0.5,
            "probGlobal": 0.5,
            "drawnRed": 4,
            "reportedDrawn": 4,
            "compLie": 4,
            "compUnifLie": false,
            "compDetect": -1,
            "callBS": false,
            "playerTrialScore": 6,
            "oppTrialScore": 4,
            "playerTotalScore": 339,
            "oppTotalScore": 161,
            "waitTime": 5495.41140485741,
            "responseTime": 3061,
            "catchQuestion": "What was the proportion of red to blue marbles from your opponent's perspective?",
            "catchKey": "NA",
            "catchResponse": "40",
            "catchResponseTime": 9202,
            "pseudoRound": false,
            "trialTime": 19673
        },
        {
            "exptPart": "trial",
            "trialNumber": 86,
            "roleCurrent": "bullshitter",
            "marblesSampled": 10,
            "asymm": true,
            "probBullshitterRed": 0.2,
            "probBullshitDetectorRed": 0.8,
            "probGlobal": 0.2375,
            "drawnRed": 2,
            "reportedDrawn": 7,
            "compLie": -1,
            "compUnifLie": false,
            "compDetect": 0.19801011199999996,
            "callBS": false,
            "playerTrialScore": 7,
            "oppTrialScore": 3,
            "playerTotalScore": 346,
            "oppTotalScore": 164,
            "waitTime": 3110.4910533407046,
            "responseTime": 5198,
            "catchQuestion": "What was the proportion of red to blue marbles from your opponent's perspective?",
            "catchKey": -1,
            "catchResponse": -1,
            "catchResponseTime": -1,
            "pseudoRound": false,
            "trialTime": 13706
        },
        {
            "exptPart": "trial",
            "trialNumber": 87,
            "roleCurrent": "bullshitDetector",
            "marblesSampled": 10,
            "asymm": true,
            "probBullshitterRed": 0.5,
            "probBullshitDetectorRed": 0.8,
            "probGlobal": 0.51875,
            "drawnRed": 6,
            "reportedDrawn": 8,
            "compLie": -1,
            "compUnifLie": true,
            "compDetect": 0.19801011199999996,
            "callBS": true,
            "playerTrialScore": 5,
            "oppTrialScore": -5,
            "playerTotalScore": 351,
            "oppTotalScore": 159,
            "waitTime": 5618.329820370788,
            "responseTime": 3734,
            "catchQuestion": "What was the proportion of red to blue marbles from your opponent's perspective?",
            "catchKey": -1,
            "catchResponse": -1,
            "catchResponseTime": -1,
            "pseudoRound": false,
            "trialTime": 11667
        },
        {
            "exptPart": "trial",
            "trialNumber": 88,
            "roleCurrent": "bullshitter",
            "marblesSampled": 10,
            "asymm": false,
            "probBullshitterRed": 0.2,
            "probBullshitDetectorRed": 0.2,
            "probGlobal": 0.2,
            "drawnRed": 2,
            "reportedDrawn": 3,
            "compLie": -1,
            "compUnifLie": false,
            "compDetect": 0.7013265920000002,
            "callBS": true,
            "playerTrialScore": -5,
            "oppTrialScore": 5,
            "playerTotalScore": 346,
            "oppTotalScore": 164,
            "waitTime": 2843.2119402352055,
            "responseTime": 5509,
            "catchQuestion": "What was the proportion of red to blue marbles from your opponent's perspective?",
            "catchKey": -1,
            "catchResponse": -1,
            "catchResponseTime": -1,
            "pseudoRound": false,
            "trialTime": 12861
        },
        {
            "exptPart": "trial",
            "trialNumber": 89,
            "roleCurrent": "bullshitDetector",
            "marblesSampled": 10,
            "asymm": false,
            "probBullshitterRed": 0.8,
            "probBullshitDetectorRed": 0.8,
            "probGlobal": 0.8,
            "drawnRed": 8,
            "reportedDrawn": 10,
            "compLie": -1,
            "compUnifLie": false,
            "compDetect": 0.7013265920000002,
            "callBS": true,
            "playerTrialScore": 5,
            "oppTrialScore": -5,
            "playerTotalScore": 351,
            "oppTotalScore": 159,
            "waitTime": 6729.975243561365,
            "responseTime": 1546,
            "catchQuestion": "What was the proportion of red to blue marbles from your opponent's perspective?",
            "catchKey": -1,
            "catchResponse": -1,
            "catchResponseTime": -1,
            "pseudoRound": true,
            "trialTime": 9693
        },
        {
            "exptPart": "trial",
            "trialNumber": 90,
            "roleCurrent": "bullshitter",
            "marblesSampled": 10,
            "asymm": true,
            "probBullshitterRed": 0.8,
            "probBullshitDetectorRed": 0.5,
            "probGlobal": 0.78125,
            "drawnRed": 7,
            "reportedDrawn": 7,
            "compLie": -1,
            "compUnifLie": false,
            "compDetect": 0.822265625,
            "callBS": true,
            "playerTrialScore": 7,
            "oppTrialScore": -2,
            "playerTotalScore": 358,
            "oppTotalScore": 157,
            "waitTime": 2477.45276095829,
            "responseTime": 7976,
            "catchQuestion": "What was the proportion of red to blue marbles from your opponent's perspective?",
            "catchKey": -1,
            "catchResponse": -1,
            "catchResponseTime": -1,
            "pseudoRound": false,
            "trialTime": 15208
        },
        {
            "exptPart": "trial",
            "trialNumber": 91,
            "roleCurrent": "bullshitDetector",
            "marblesSampled": 10,
            "asymm": true,
            "probBullshitterRed": 0.2,
            "probBullshitDetectorRed": 0.5,
            "probGlobal": 0.21875,
            "drawnRed": 3,
            "reportedDrawn": 4,
            "compLie": 4,
            "compUnifLie": false,
            "compDetect": -1,
            "callBS": false,
            "playerTrialScore": 6,
            "oppTrialScore": 4,
            "playerTotalScore": 364,
            "oppTotalScore": 161,
            "waitTime": 5340.309344958676,
            "responseTime": 3911,
            "catchQuestion": "What was the proportion of red to blue marbles from your opponent's perspective?",
            "catchKey": -1,
            "catchResponse": -1,
            "catchResponseTime": -1,
            "pseudoRound": false,
            "trialTime": 10532
        },
        {
            "exptPart": "trial",
            "trialNumber": 92,
            "roleCurrent": "bullshitter",
            "marblesSampled": 10,
            "asymm": true,
            "probBullshitterRed": 0.5,
            "probBullshitDetectorRed": 0.2,
            "probGlobal": 0.48125,
            "drawnRed": 6,
            "reportedDrawn": 2,
            "compLie": -1,
            "compUnifLie": false,
            "compDetect": 0.5,
            "callBS": false,
            "playerTrialScore": 2,
            "oppTrialScore": 8,
            "playerTotalScore": 366,
            "oppTotalScore": 169,
            "waitTime": 2154.622437396731,
            "responseTime": 2243,
            "catchQuestion": "What was the proportion of red to blue marbles from your opponent's perspective?",
            "catchKey": -1,
            "catchResponse": -1,
            "catchResponseTime": -1,
            "pseudoRound": false,
            "trialTime": 9027
        },
        {
            "exptPart": "trial",
            "trialNumber": 93,
            "roleCurrent": "bullshitDetector",
            "marblesSampled": 10,
            "asymm": false,
            "probBullshitterRed": 0.8,
            "probBullshitDetectorRed": 0.8,
            "probGlobal": 0.8,
            "drawnRed": 9,
            "reportedDrawn": 10,
            "compLie": 10,
            "compUnifLie": false,
            "compDetect": -1,
            "callBS": true,
            "playerTrialScore": 5,
            "oppTrialScore": -5,
            "playerTotalScore": 371,
            "oppTotalScore": 164,
            "waitTime": 5948.729377025891,
            "responseTime": 1312,
            "catchQuestion": "What was the proportion of red to blue marbles from your opponent's perspective?",
            "catchKey": -1,
            "catchResponse": -1,
            "catchResponseTime": -1,
            "pseudoRound": false,
            "trialTime": 9164
        },
        {
            "exptPart": "trial",
            "trialNumber": 94,
            "roleCurrent": "bullshitter",
            "marblesSampled": 10,
            "asymm": true,
            "probBullshitterRed": 0.5,
            "probBullshitDetectorRed": 0.2,
            "probGlobal": 0.48125,
            "drawnRed": 5,
            "reportedDrawn": 4,
            "compLie": -1,
            "compUnifLie": false,
            "compDetect": 0.7894069760000003,
            "callBS": true,
            "playerTrialScore": -5,
            "oppTrialScore": 5,
            "playerTotalScore": 366,
            "oppTotalScore": 169,
            "waitTime": 3077.4661771294254,
            "responseTime": 4946,
            "catchQuestion": "How many red marbles did you actually draw?",
            "catchKey": 5,
            "catchResponse": 5,
            "catchResponseTime": 2507,
            "pseudoRound": false,
            "trialTime": 15118
        },
        {
            "exptPart": "trial",
            "trialNumber": 95,
            "roleCurrent": "bullshitDetector",
            "marblesSampled": 10,
            "asymm": true,
            "probBullshitterRed": 0.2,
            "probBullshitDetectorRed": 0.8,
            "probGlobal": 0.2375,
            "drawnRed": 2,
            "reportedDrawn": 9,
            "compLie": 9,
            "compUnifLie": false,
            "compDetect": -1,
            "callBS": true,
            "playerTrialScore": 5,
            "oppTrialScore": -5,
            "playerTotalScore": 371,
            "oppTotalScore": 164,
            "waitTime": 5189.679783750078,
            "responseTime": 2207,
            "catchQuestion": "How many red marbles did you actually draw?",
            "catchKey": -1,
            "catchResponse": -1,
            "catchResponseTime": -1,
            "pseudoRound": false,
            "trialTime": 8948
        },
        {
            "exptPart": "trial",
            "trialNumber": 96,
            "roleCurrent": "bullshitter",
            "marblesSampled": 10,
            "asymm": true,
            "probBullshitterRed": 0.5,
            "probBullshitDetectorRed": 0.2,
            "probGlobal": 0.48125,
            "drawnRed": 5,
            "reportedDrawn": 2,
            "compLie": -1,
            "compUnifLie": false,
            "compDetect": 0.5,
            "callBS": true,
            "playerTrialScore": -5,
            "oppTrialScore": 5,
            "playerTotalScore": 366,
            "oppTotalScore": 169,
            "waitTime": 2520.802523723092,
            "responseTime": 5130,
            "catchQuestion": "How many red marbles did you actually draw?",
            "catchKey": -1,
            "catchResponse": -1,
            "catchResponseTime": -1,
            "pseudoRound": false,
            "trialTime": 12134
        },
        {
            "exptPart": "trial",
            "trialNumber": 97,
            "roleCurrent": "bullshitDetector",
            "marblesSampled": 10,
            "asymm": true,
            "probBullshitterRed": 0.8,
            "probBullshitDetectorRed": 0.5,
            "probGlobal": 0.78125,
            "drawnRed": 8,
            "reportedDrawn": 6,
            "compLie": -1,
            "compUnifLie": true,
            "compDetect": 0.5,
            "callBS": true,
            "playerTrialScore": 5,
            "oppTrialScore": -5,
            "playerTotalScore": 371,
            "oppTotalScore": 164,
            "waitTime": 6419.969833252105,
            "responseTime": 1936,
            "catchQuestion": "How many red marbles did you actually draw?",
            "catchKey": -1,
