{
    "client": {
        "type": "sona",
        "experiment_id": 1505,
        "credit_token": "b20092f9d3b34a378ee654bcc50710ea",
        "survey_code": "31839",
        "sid": "sona-31839",
        "window": {
            "width": 1440,
            "height": 837
        },
        "screen": {
            "width": 1440,
            "height": 900
        },
        "userAgent": "Mozilla\/5.0 (Macintosh; Intel Mac OS X 10_15_6) AppleWebKit\/605.1.15 (KHTML, like Gecko) Version\/13.1.2 Safari\/605.1.15",
        "score": 0,
        "bonus": 0
    },
    "expt": {
        "saveURL": "submit.simple.php",
        "trials": 100,
        "practiceTrials": 4,
        "marblesSampled": 10,
        "roles": [
            "bullshitter",
            "bullshitDetector"
        ],
        "roleFirst": "bullshitter",
        "allTrialProbs": [
            0.2,
            0.5,
            0.8
        ],
        "occlude": "human",
        "catchTrials": [
            12,
            56,
            16,
            25,
            23,
            71,
            61,
            45,
            49,
            0,
            51,
            40,
            63,
            4,
            2
        ],
        "pseudo": {
            "15": 2,
            "16": 1,
            "22": 8,
            "34": 9,
            "51": 3,
            "55": 10,
            "64": 2,
            "66": 0,
            "67": 4,
            "71": 9,
            "76": 4,
            "77": 6,
            "78": 6,
            "79": 5,
            "82": 7,
            "85": 1,
            "91": 7,
            "94": 3,
            "96": 5,
            "97": 0,
            "99": 8,
            "100": 10
        },
        "stat": {
            "playerTotalScore": 381,
            "oppTotalScore": 399,
            "truth": 24,
            "truth_noBS": 9,
            "truth_BS": 15,
            "lie": 26,
            "lie_noBS": 21,
            "lie_BS": 5,
            "noBS": 36,
            "noBS_truth": 13,
            "noBS_lie": 23,
            "BS": 14,
            "BS_truth": 9,
            "BS_lie": 5
        },
        "sona": {
            "experiment_id": 1505,
            "credit_token": "b20092f9d3b34a378ee654bcc50710ea"
        },
        "debug": false
    },
    "trials": [
        {
            "exptPart": "practice",
            "trialNumber": 1,
            "roleCurrent": "bullshitter",
            "marblesSampled": 10,
            "asymm": true,
            "probBullshitterRed": 0.5,
            "probBullshitDetectorRed": 0.8,
            "probGlobal": 0.51875,
            "drawnRed": 2,
            "reportedDrawn": 4,
            "compLie": -1,
            "compUnifLie": false,
            "compDetect": -0.11782097919999997,
            "callBS": false,
            "playerTrialScore": 4,
            "oppTrialScore": 6,
            "playerTotalScore": 4,
            "oppTotalScore": 6,
            "waitTime": 2180.0184139063404,
            "responseTime": 18669,
            "catchQuestion": "How many red marbles did you actually draw?",
            "catchKey": 2,
            "catchResponse": 2,
            "catchResponseTime": 10555,
            "pseudoRound": false,
            "trialTime": 60994
        },
        {
            "exptPart": "practice",
            "trialNumber": 2,
            "roleCurrent": "bullshitDetector",
            "marblesSampled": 10,
            "asymm": true,
            "probBullshitterRed": 0.2,
            "probBullshitDetectorRed": 0.8,
            "probGlobal": 0.2375,
            "drawnRed": 1,
            "reportedDrawn": 9,
            "compLie": 9,
            "compUnifLie": false,
            "compDetect": -1,
            "callBS": true,
            "playerTrialScore": 5,
            "oppTrialScore": -5,
            "playerTotalScore": 9,
            "oppTotalScore": 1,
            "waitTime": 5322.827537811383,
            "responseTime": 18320,
            "catchQuestion": "What was the proportion of red to blue marbles from your opponent's perspective?",
            "catchKey": "NA",
            "catchResponse": "41",
            "catchResponseTime": 13879,
            "pseudoRound": false,
            "trialTime": 44205
        },
        {
            "exptPart": "practice",
            "trialNumber": 3,
            "roleCurrent": "bullshitter",
            "marblesSampled": 10,
            "asymm": false,
            "probBullshitterRed": 0.5,
            "probBullshitDetectorRed": 0.5,
            "probGlobal": 0.5,
            "drawnRed": 6,
            "reportedDrawn": 6,
            "compLie": -1,
            "compUnifLie": false,
            "compDetect": 0.705078125,
            "callBS": true,
            "playerTrialScore": 6,
            "oppTrialScore": -1,
            "playerTotalScore": 15,
            "oppTotalScore": 0,
            "waitTime": 2818.450439853578,
            "responseTime": 8222,
            "catchQuestion": "How many red marbles did you actually draw?",
            "catchKey": 6,
            "catchResponse": 6,
            "catchResponseTime": 3425,
            "pseudoRound": false,
            "trialTime": 23384
        },
        {
            "exptPart": "practice",
            "trialNumber": 4,
            "roleCurrent": "bullshitDetector",
            "marblesSampled": 10,
            "asymm": true,
            "probBullshitterRed": 0.5,
            "probBullshitDetectorRed": 0.2,
            "probGlobal": 0.48125,
            "drawnRed": 3,
            "reportedDrawn": 3,
            "compLie": 3,
            "compUnifLie": false,
            "compDetect": -1,
            "callBS": false,
            "playerTrialScore": 7,
            "oppTrialScore": 3,
            "playerTotalScore": 22,
            "oppTotalScore": 3,
            "waitTime": 5261.455302500385,
            "responseTime": 19304,
            "catchQuestion": "How many red marbles did your opponent report drawing?",
            "catchKey": 3,
            "catchResponse": 3,
            "catchResponseTime": 6216,
            "pseudoRound": false,
            "trialTime": 34751
        },
        {
            "exptPart": "trial",
            "trialNumber": 1,
            "roleCurrent": "bullshitter",
            "marblesSampled": 10,
            "asymm": false,
            "probBullshitterRed": 0.5,
            "probBullshitDetectorRed": 0.5,
            "probGlobal": 0.5,
            "drawnRed": 5,
            "reportedDrawn": 5,
            "compLie": -1,
            "compUnifLie": false,
            "compDetect": 0.5,
            "callBS": true,
            "playerTrialScore": 5,
            "oppTrialScore": 0,
            "playerTotalScore": 5,
            "oppTotalScore": 0,
            "waitTime": 2294.3019299669695,
            "responseTime": 6273,
            "catchQuestion": "What was the proportion of red to blue marbles from your perspective?",
            "catchKey": 50,
            "catchResponse": "47",
            "catchResponseTime": 10192,
            "pseudoRound": false,
            "trialTime": 28959
        },
        {
            "exptPart": "trial",
            "trialNumber": 2,
            "roleCurrent": "bullshitDetector",
            "marblesSampled": 10,
            "asymm": false,
            "probBullshitterRed": 0.2,
            "probBullshitDetectorRed": 0.2,
            "probGlobal": 0.2,
            "drawnRed": 2,
            "reportedDrawn": 3,
            "compLie": 3,
            "compUnifLie": false,
            "compDetect": -1,
            "callBS": false,
            "playerTrialScore": 7,
            "oppTrialScore": 3,
            "playerTotalScore": 12,
            "oppTotalScore": 3,
            "waitTime": 6982.832421517834,
            "responseTime": 17079,
            "catchQuestion": "What was the proportion of red to blue marbles from your perspective?",
            "catchKey": -1,
            "catchResponse": -1,
            "catchResponseTime": -1,
            "pseudoRound": false,
            "trialTime": 26311
        },
        {
            "exptPart": "trial",
            "trialNumber": 3,
            "roleCurrent": "bullshitter",
            "marblesSampled": 10,
            "asymm": true,
            "probBullshitterRed": 0.5,
            "probBullshitDetectorRed": 0.2,
            "probGlobal": 0.48125,
            "drawnRed": 4,
            "reportedDrawn": 5,
            "compLie": -1,
            "compUnifLie": false,
            "compDetect": 0.8158310912000003,
            "callBS": true,
            "playerTrialScore": -5,
            "oppTrialScore": 5,
            "playerTotalScore": 7,
            "oppTotalScore": 8,
            "waitTime": 3173.5492296959737,
            "responseTime": 16929,
            "catchQuestion": "What was the proportion of red to blue marbles from your opponent's perspective?",
            "catchKey": 20,
            "catchResponse": "57",
            "catchResponseTime": 8759,
            "pseudoRound": false,
            "trialTime": 46857
        },
        {
            "exptPart": "trial",
            "trialNumber": 4,
            "roleCurrent": "bullshitDetector",
            "marblesSampled": 10,
            "asymm": true,
            "probBullshitterRed": 0.8,
            "probBullshitDetectorRed": 0.5,
            "probGlobal": 0.78125,
            "drawnRed": 6,
            "reportedDrawn": 0,
            "compLie": -1,
            "compUnifLie": true,
            "compDetect": 0.8158310912000003,
            "callBS": true,
            "playerTrialScore": 5,
            "oppTrialScore": -5,
            "playerTotalScore": 12,
            "oppTotalScore": 3,
            "waitTime": 6869.229709999059,
            "responseTime": 11532,
            "catchQuestion": "What was the proportion of red to blue marbles from your opponent's perspective?",
            "catchKey": -1,
            "catchResponse": -1,
            "catchResponseTime": -1,
            "pseudoRound": false,
            "trialTime": 22090
        },
        {
            "exptPart": "trial",
            "trialNumber": 5,
            "roleCurrent": "bullshitter",
            "marblesSampled": 10,
            "asymm": true,
            "probBullshitterRed": 0.8,
            "probBullshitDetectorRed": 0.2,
            "probGlobal": 0.7625,
            "drawnRed": 10,
            "reportedDrawn": 10,
            "compLie": -1,
            "compUnifLie": false,
            "compDetect": 0.8222004736000001,
            "callBS": true,
            "playerTrialScore": 10,
            "oppTrialScore": -5,
            "playerTotalScore": 22,
            "oppTotalScore": -2,
            "waitTime": 2487.1616855911216,
            "responseTime": 13426,
            "catchQuestion": "How many red marbles did you actually draw?",
            "catchKey": 10,
            "catchResponse": 10,
            "catchResponseTime": 6889,
            "pseudoRound": false,
            "trialTime": 36996
        },
        {
            "exptPart": "trial",
            "trialNumber": 6,
            "roleCurrent": "bullshitDetector",
            "marblesSampled": 10,
            "asymm": true,
            "probBullshitterRed": 0.8,
            "probBullshitDetectorRed": 0.5,
            "probGlobal": 0.78125,
            "drawnRed": 8,
            "reportedDrawn": 8,
            "compLie": 5,
            "compUnifLie": false,
            "compDetect": -1,
            "callBS": true,
            "playerTrialScore": -3,
            "oppTrialScore": 8,
            "playerTotalScore": 19,
            "oppTotalScore": 6,
            "waitTime": 6881.612966232668,
            "responseTime": 21358,
            "catchQuestion": "How many red marbles did you actually draw?",
            "catchKey": -1,
            "catchResponse": -1,
            "catchResponseTime": -1,
            "pseudoRound": false,
            "trialTime": 30441
        },
        {
            "exptPart": "trial",
            "trialNumber": 7,
            "roleCurrent": "bullshitter",
            "marblesSampled": 10,
            "asymm": true,
            "probBullshitterRed": 0.2,
            "probBullshitDetectorRed": 0.5,
            "probGlobal": 0.21875,
            "drawnRed": 3,
            "reportedDrawn": 2,
            "compLie": -1,
            "compUnifLie": false,
            "compDetect": -0.068359375,
            "callBS": false,
            "playerTrialScore": 2,
            "oppTrialScore": 8,
            "playerTotalScore": 21,
            "oppTotalScore": 14,
            "waitTime": 2524.1033545233304,
            "responseTime": 22714,
            "catchQuestion": "How many red marbles did you actually draw?",
            "catchKey": -1,
            "catchResponse": -1,
            "catchResponseTime": -1,
            "pseudoRound": false,
            "trialTime": 37855
        },
        {
            "exptPart": "trial",
            "trialNumber": 8,
            "roleCurrent": "bullshitDetector",
            "marblesSampled": 10,
            "asymm": true,
            "probBullshitterRed": 0.8,
            "probBullshitDetectorRed": 0.2,
            "probGlobal": 0.7625,
            "drawnRed": 6,
            "reportedDrawn": 0,
            "compLie": -1,
            "compUnifLie": true,
            "compDetect": -0.068359375,
            "callBS": false,
            "playerTrialScore": 10,
            "oppTrialScore": 0,
            "playerTotalScore": 31,
            "oppTotalScore": 14,
            "waitTime": 5858.138916167072,
            "responseTime": 13247,
            "catchQuestion": "How many red marbles did you actually draw?",
            "catchKey": -1,
            "catchResponse": -1,
            "catchResponseTime": -1,
            "pseudoRound": false,
            "trialTime": 20763
        },
        {
            "exptPart": "trial",
            "trialNumber": 9,
            "roleCurrent": "bullshitter",
            "marblesSampled": 10,
            "asymm": false,
            "probBullshitterRed": 0.5,
            "probBullshitDetectorRed": 0.5,
            "probGlobal": 0.5,
            "drawnRed": 7,
            "reportedDrawn": 7,
            "compLie": -1,
            "compUnifLie": false,
            "compDetect": 0.822265625,
            "callBS": true,
            "playerTrialScore": 7,
            "oppTrialScore": -2,
            "playerTotalScore": 38,
            "oppTotalScore": 12,
            "waitTime": 2798.9983456211485,
            "responseTime": 17524,
            "catchQuestion": "How many red marbles did you actually draw?",
            "catchKey": -1,
            "catchResponse": -1,
            "catchResponseTime": -1,
            "pseudoRound": false,
            "trialTime": 33212
        },
        {
            "exptPart": "trial",
            "trialNumber": 10,
            "roleCurrent": "bullshitDetector",
            "marblesSampled": 10,
            "asymm": false,
            "probBullshitterRed": 0.8,
            "probBullshitDetectorRed": 0.8,
            "probGlobal": 0.8,
            "drawnRed": 8,
            "reportedDrawn": 10,
            "compLie": 10,
            "compUnifLie": false,
            "compDetect": -1,
            "callBS": true,
            "playerTrialScore": 5,
            "oppTrialScore": -5,
            "playerTotalScore": 43,
            "oppTotalScore": 7,
            "waitTime": 5660.56546945594,
            "responseTime": 9438,
            "catchQuestion": "How many red marbles did you actually draw?",
            "catchKey": -1,
            "catchResponse": -1,
            "catchResponseTime": -1,
            "pseudoRound": false,
            "trialTime": 17555
        },
        {
            "exptPart": "trial",
            "trialNumber": 11,
            "roleCurrent": "bullshitter",
            "marblesSampled": 10,
            "asymm": true,
            "probBullshitterRed": 0.2,
            "probBullshitDetectorRed": 0.5,
            "probGlobal": 0.21875,
            "drawnRed": 2,
            "reportedDrawn": 1,
            "compLie": -1,
            "compUnifLie": false,
            "compDetect": -0.1123046875,
            "callBS": false,
            "playerTrialScore": 1,
            "oppTrialScore": 9,
            "playerTotalScore": 44,
            "oppTotalScore": 16,
            "waitTime": 2647.1458739000564,
            "responseTime": 10403,
            "catchQuestion": "How many red marbles did you actually draw?",
            "catchKey": -1,
            "catchResponse": -1,
            "catchResponseTime": -1,
            "pseudoRound": false,
            "trialTime": 23296
        },
        {
            "exptPart": "trial",
            "trialNumber": 12,
            "roleCurrent": "bullshitDetector",
            "marblesSampled": 10,
            "asymm": false,
            "probBullshitterRed": 0.2,
            "probBullshitDetectorRed": 0.2,
            "probGlobal": 0.2,
            "drawnRed": 2,
            "reportedDrawn": 2,
            "compLie": 2,
            "compUnifLie": false,
            "compDetect": -1,
            "callBS": true,
            "playerTrialScore": 3,
            "oppTrialScore": 2,
            "playerTotalScore": 47,
            "oppTotalScore": 18,
            "waitTime": 5766.969007922689,
            "responseTime": 3402,
            "catchQuestion": "How many red marbles did you actually draw?",
            "catchKey": -1,
            "catchResponse": -1,
            "catchResponseTime": -1,
            "pseudoRound": false,
            "trialTime": 10898
        },
        {
            "exptPart": "trial",
            "trialNumber": 13,
            "roleCurrent": "bullshitter",
            "marblesSampled": 10,
            "asymm": false,
            "probBullshitterRed": 0.5,
            "probBullshitDetectorRed": 0.5,
            "probGlobal": 0.5,
            "drawnRed": 5,
            "reportedDrawn": 5,
            "compLie": -1,
            "compUnifLie": false,
            "compDetect": 0.5,
            "callBS": false,
            "playerTrialScore": 5,
            "oppTrialScore": 5,
            "playerTotalScore": 52,
            "oppTotalScore": 23,
            "waitTime": 2510.8495024621616,
            "responseTime": 4672,
            "catchQuestion": "How many red marbles did you actually draw?",
            "catchKey": 5,
            "catchResponse": 5,
            "catchResponseTime": 6569,
            "pseudoRound": false,
            "trialTime": 23696
        },
        {
            "exptPart": "trial",
            "trialNumber": 14,
            "roleCurrent": "bullshitDetector",
            "marblesSampled": 10,
            "asymm": true,
            "probBullshitterRed": 0.2,
            "probBullshitDetectorRed": 0.5,
            "probGlobal": 0.21875,
            "drawnRed": 5,
            "reportedDrawn": 5,
            "compLie": 4,
            "compUnifLie": false,
            "compDetect": -1,
            "callBS": false,
            "playerTrialScore": 5,
            "oppTrialScore": 5,
            "playerTotalScore": 57,
            "oppTotalScore": 28,
            "waitTime": 6779.97735184331,
            "responseTime": 13939,
            "catchQuestion": "How many red marbles did you actually draw?",
            "catchKey": -1,
            "catchResponse": -1,
            "catchResponseTime": -1,
            "pseudoRound": false,
            "trialTime": 22968
        },
        {
            "exptPart": "trial",
            "trialNumber": 15,
            "roleCurrent": "bullshitter",
            "marblesSampled": 10,
            "asymm": false,
            "probBullshitterRed": 0.8,
            "probBullshitDetectorRed": 0.8,
            "probGlobal": 0.8,
            "drawnRed": 8,
            "reportedDrawn": 9,
            "compLie": -1,
            "compUnifLie": false,
            "compDetect": 0.7684354560000002,
            "callBS": false,
            "playerTrialScore": 9,
            "oppTrialScore": 1,
            "playerTotalScore": 66,
            "oppTotalScore": 29,
            "waitTime": 3172.6669183039207,
            "responseTime": 13278,
            "catchQuestion": "How many red marbles did you actually draw?",
            "catchKey": -1,
            "catchResponse": -1,
            "catchResponseTime": -1,
            "pseudoRound": false,
            "trialTime": 77037
        },
        {
            "exptPart": "trial",
            "trialNumber": 16,
            "roleCurrent": "bullshitDetector",
            "marblesSampled": 10,
            "asymm": true,
            "probBullshitterRed": 0.5,
            "probBullshitDetectorRed": 0.2,
            "probGlobal": 0.48125,
            "drawnRed": 4,
            "reportedDrawn": 2,
            "compLie": -1,
            "compUnifLie": false,
            "compDetect": 0.7684354560000002,
            "callBS": false,
            "playerTrialScore": 8,
            "oppTrialScore": 2,
            "playerTotalScore": 74,
            "oppTotalScore": 31,
            "waitTime": 7067.039691096974,
            "responseTime": 6187,
            "catchQuestion": "How many red marbles did you actually draw?",
            "catchKey": -1,
            "catchResponse": -1,
            "catchResponseTime": -1,
            "pseudoRound": true,
            "trialTime": 14769
        },
        {
            "exptPart": "trial",
            "trialNumber": 17,
            "roleCurrent": "bullshitter",
            "marblesSampled": 10,
            "asymm": true,
            "probBullshitterRed": 0.2,
            "probBullshitDetectorRed": 0.8,
            "probGlobal": 0.2375,
            "drawnRed": 1,
            "reportedDrawn": 2,
            "compLie": -1,
            "compUnifLie": false,
            "compDetect": -0.12411243519999997,
            "callBS": false,
            "playerTrialScore": 2,
            "oppTrialScore": 8,
            "playerTotalScore": 76,
            "oppTotalScore": 39,
            "waitTime": 2565.9348499982775,
            "responseTime": 15986,
            "catchQuestion": "How many red marbles did you actually draw?",
            "catchKey": 1,
            "catchResponse": 3,
            "catchResponseTime": 12410,
            "pseudoRound": true,
            "trialTime": 40643
        },
        {
            "exptPart": "trial",
            "trialNumber": 18,
            "roleCurrent": "bullshitDetector",
            "marblesSampled": 10,
            "asymm": false,
            "probBullshitterRed": 0.8,
            "probBullshitDetectorRed": 0.8,
            "probGlobal": 0.8,
            "drawnRed": 9,
            "reportedDrawn": 9,
            "compLie": 6,
            "compUnifLie": false,
            "compDetect": -1,
            "callBS": true,
            "playerTrialScore": -4,
            "oppTrialScore": 9,
            "playerTotalScore": 72,
            "oppTotalScore": 48,
            "waitTime": 7239.206346986764,
            "responseTime": 2801,
            "catchQuestion": "How many red marbles did you actually draw?",
            "catchKey": -1,
            "catchResponse": -1,
            "catchResponseTime": -1,
            "pseudoRound": false,
            "trialTime": 12657
        },
        {
            "exptPart": "trial",
            "trialNumber": 19,
            "roleCurrent": "bullshitter",
            "marblesSampled": 10,
            "asymm": true,
            "probBullshitterRed": 0.5,
            "probBullshitDetectorRed": 0.2,
            "probGlobal": 0.48125,
            "drawnRed": 3,
            "reportedDrawn": 2,
            "compLie": -1,
            "compUnifLie": false,
            "compDetect": 0.5,
            "callBS": false,
            "playerTrialScore": 2,
            "oppTrialScore": 8,
            "playerTotalScore": 74,
            "oppTotalScore": 56,
            "waitTime": 2881.688144378136,
            "responseTime": 12461,
            "catchQuestion": "How many red marbles did you actually draw?",
            "catchKey": -1,
            "catchResponse": -1,
            "catchResponseTime": -1,
            "pseudoRound": false,
            "trialTime": 21334
        },
        {
            "exptPart": "trial",
            "trialNumber": 20,
            "roleCurrent": "bullshitDetector",
            "marblesSampled": 10,
            "asymm": true,
            "probBullshitterRed": 0.8,
            "probBullshitDetectorRed": 0.2,
            "probGlobal": 0.7625,
            "drawnRed": 7,
            "reportedDrawn": 7,
            "compLie": 1,
            "compUnifLie": false,
            "compDetect": -1,
            "callBS": true,
            "playerTrialScore": -2,
            "oppTrialScore": 7,
            "playerTotalScore": 72,
            "oppTotalScore": 63,
            "waitTime": 5435.426247930072,
            "responseTime": 5976,
            "catchQuestion": "How many red marbles did you actually draw?",
            "catchKey": -1,
            "catchResponse": -1,
            "catchResponseTime": -1,
            "pseudoRound": false,
            "trialTime": 13596
        },
        {
            "exptPart": "trial",
            "trialNumber": 21,
            "roleCurrent": "bullshitter",
            "marblesSampled": 10,
            "asymm": true,
            "probBullshitterRed": 0.8,
            "probBullshitDetectorRed": 0.5,
            "probGlobal": 0.78125,
            "drawnRed": 8,
            "reportedDrawn": 8,
            "compLie": -1,
            "compUnifLie": false,
            "compDetect": 0.8662109375,
            "callBS": false,
            "playerTrialScore": 8,
            "oppTrialScore": 2,
            "playerTotalScore": 80,
            "oppTotalScore": 65,
            "waitTime": 2833.5310299448547,
            "responseTime": 8230,
            "catchQuestion": "How many red marbles did you actually draw?",
            "catchKey": -1,
            "catchResponse": -1,
            "catchResponseTime": -1,
            "pseudoRound": false,
            "trialTime": 19270
        },
        {
            "exptPart": "trial",
            "trialNumber": 22,
            "roleCurrent": "bullshitDetector",
            "marblesSampled": 10,
            "asymm": true,
            "probBullshitterRed": 0.5,
            "probBullshitDetectorRed": 0.8,
            "probGlobal": 0.51875,
            "drawnRed": 8,
            "reportedDrawn": 8,
            "compLie": 7,
            "compUnifLie": false,
            "compDetect": -1,
            "callBS": false,
            "playerTrialScore": 2,
            "oppTrialScore": 8,
            "playerTotalScore": 82,
            "oppTotalScore": 73,
            "waitTime": 7321.705172030006,
            "responseTime": 6181,
            "catchQuestion": "How many red marbles did you actually draw?",
            "catchKey": -1,
            "catchResponse": -1,
            "catchResponseTime": -1,
            "pseudoRound": false,
            "trialTime": 15078
        },
        {
            "exptPart": "trial",
            "trialNumber": 23,
            "roleCurrent": "bullshitter",
            "marblesSampled": 10,
            "asymm": true,
            "probBullshitterRed": 0.2,
            "probBullshitDetectorRed": 0.5,
            "probGlobal": 0.21875,
            "drawnRed": 8,
            "reportedDrawn": 8,
            "compLie": -1,
            "compUnifLie": false,
            "compDetect": 0.8662109375,
            "callBS": true,
            "playerTrialScore": 8,
            "oppTrialScore": -3,
            "playerTotalScore": 90,
            "oppTotalScore": 70,
            "waitTime": 3160.4248105265865,
            "responseTime": 4464,
            "catchQuestion": "How many red marbles did you actually draw?",
            "catchKey": -1,
            "catchResponse": -1,
            "catchResponseTime": -1,
            "pseudoRound": true,
            "trialTime": 15269
        },
        {
            "exptPart": "trial",
            "trialNumber": 24,
            "roleCurrent": "bullshitDetector",
            "marblesSampled": 10,
            "asymm": true,
            "probBullshitterRed": 0.5,
            "probBullshitDetectorRed": 0.2,
            "probGlobal": 0.48125,
            "drawnRed": 6,
            "reportedDrawn": 6,
            "compLie": 3,
            "compUnifLie": false,
            "compDetect": -1,
            "callBS": false,
            "playerTrialScore": 4,
            "oppTrialScore": 6,
            "playerTotalScore": 94,
            "oppTotalScore": 76,
            "waitTime": 5597.15651141604,
            "responseTime": 16851,
            "catchQuestion": "How many red marbles did your opponent report drawing?",
            "catchKey": 6,
            "catchResponse": 6,
            "catchResponseTime": 5063,
            "pseudoRound": false,
            "trialTime": 29169
        },
        {
            "exptPart": "trial",
            "trialNumber": 25,
            "roleCurrent": "bullshitter",
            "marblesSampled": 10,
            "asymm": false,
            "probBullshitterRed": 0.8,
            "probBullshitDetectorRed": 0.8,
            "probGlobal": 0.8,
            "drawnRed": 8,
            "reportedDrawn": 8,
            "compLie": -1,
            "compUnifLie": false,
            "compDetect": 0.5,
            "callBS": true,
            "playerTrialScore": 8,
            "oppTrialScore": -3,
            "playerTotalScore": 102,
            "oppTotalScore": 73,
            "waitTime": 2878.1388461146853,
            "responseTime": 15695,
            "catchQuestion": "How many red marbles did your opponent report drawing?",
            "catchKey": -1,
            "catchResponse": -1,
            "catchResponseTime": -1,
            "pseudoRound": false,
            "trialTime": 26422
        },
        {
            "exptPart": "trial",
            "trialNumber": 26,
            "roleCurrent": "bullshitDetector",
            "marblesSampled": 10,
            "asymm": false,
            "probBullshitterRed": 0.5,
            "probBullshitDetectorRed": 0.5,
            "probGlobal": 0.5,
            "drawnRed": 4,
            "reportedDrawn": 6,
            "compLie": 6,
            "compUnifLie": false,
            "compDetect": -1,
            "callBS": false,
            "playerTrialScore": 4,
            "oppTrialScore": 6,
            "playerTotalScore": 106,
            "oppTotalScore": 79,
            "waitTime": 6872.91237405284,
            "responseTime": 1297,
            "catchQuestion": "How many red marbles did your opponent report drawing?",
            "catchKey": 6,
            "catchResponse": 6,
            "catchResponseTime": 3384,
            "pseudoRound": false,
            "trialTime": 13145
        },
        {
            "exptPart": "trial",
            "trialNumber": 27,
            "roleCurrent": "bullshitter",
            "marblesSampled": 10,
            "asymm": true,
            "probBullshitterRed": 0.8,
            "probBullshitDetectorRed": 0.2,
            "probGlobal": 0.7625,
            "drawnRed": 7,
            "reportedDrawn": 7,
            "compLie": -1,
            "compUnifLie": false,
            "compDetect": 0.8221225472000002,
            "callBS": true,
            "playerTrialScore": 7,
            "oppTrialScore": -2,
            "playerTotalScore": 113,
            "oppTotalScore": 77,
            "waitTime": 2453.6297301157883,
            "responseTime": 4630,
            "catchQuestion": "How many red marbles did your opponent report drawing?",
            "catchKey": -1,
            "catchResponse": -1,
            "catchResponseTime": -1,
            "pseudoRound": false,
            "trialTime": 11801
        },
        {
            "exptPart": "trial",
            "trialNumber": 28,
            "roleCurrent": "bullshitDetector",
            "marblesSampled": 10,
            "asymm": true,
            "probBullshitterRed": 0.2,
            "probBullshitDetectorRed": 0.8,
            "probGlobal": 0.2375,
            "drawnRed": 1,
            "reportedDrawn": 9,
            "compLie": 9,
            "compUnifLie": false,
            "compDetect": -1,
            "callBS": false,
            "playerTrialScore": 1,
            "oppTrialScore": 9,
            "playerTotalScore": 114,
            "oppTotalScore": 86,
            "waitTime": 7374.725669999435,
            "responseTime": 1967,
            "catchQuestion": "How many red marbles did your opponent report drawing?",
            "catchKey": -1,
            "catchResponse": -1,
            "catchResponseTime": -1,
            "pseudoRound": false,
            "trialTime": 11072
        },
        {
            "exptPart": "trial",
            "trialNumber": 29,
            "roleCurrent": "bullshitter",
            "marblesSampled": 10,
            "asymm": false,
            "probBullshitterRed": 0.2,
            "probBullshitDetectorRed": 0.2,
            "probGlobal": 0.2,
            "drawnRed": 2,
            "reportedDrawn": 1,
            "compLie": -1,
            "compUnifLie": false,
            "compDetect": 0.19801011199999963,
            "callBS": false,
            "playerTrialScore": 1,
            "oppTrialScore": 9,
            "playerTotalScore": 115,
            "oppTotalScore": 95,
            "waitTime": 3105.208392459783,
            "responseTime": 3752,
            "catchQuestion": "How many red marbles did your opponent report drawing?",
            "catchKey": -1,
            "catchResponse": -1,
            "catchResponseTime": -1,
            "pseudoRound": false,
            "trialTime": 11319
        },
        {
            "exptPart": "trial",
            "trialNumber": 30,
            "roleCurrent": "bullshitDetector",
            "marblesSampled": 10,
            "asymm": true,
            "probBullshitterRed": 0.8,
            "probBullshitDetectorRed": 0.5,
            "probGlobal": 0.78125,
            "drawnRed": 9,
            "reportedDrawn": 9,
            "compLie": 4,
            "compUnifLie": false,
            "compDetect": -1,
            "callBS": true,
            "playerTrialScore": -4,
            "oppTrialScore": 9,
            "playerTotalScore": 111,
            "oppTotalScore": 104,
            "waitTime": 5927.834120257205,
            "responseTime": 10742,
            "catchQuestion": "How many red marbles did your opponent report drawing?",
            "catchKey": -1,
            "catchResponse": -1,
            "catchResponseTime": -1,
            "pseudoRound": false,
            "trialTime": 18353
        },
        {
            "exptPart": "trial",
            "trialNumber": 31,
            "roleCurrent": "bullshitter",
            "marblesSampled": 10,
            "asymm": true,
            "probBullshitterRed": 0.2,
            "probBullshitDetectorRed": 0.8,
            "probGlobal": 0.2375,
            "drawnRed": 3,
            "reportedDrawn": 5,
            "compLie": -1,
            "compUnifLie": false,
            "compDetect": -0.091396864,
            "callBS": false,
            "playerTrialScore": 5,
            "oppTrialScore": 5,
            "playerTotalScore": 116,
            "oppTotalScore": 109,
            "waitTime": 2569.4858377847568,
            "responseTime": 7118,
            "catchQuestion": "How many red marbles did your opponent report drawing?",
            "catchKey": -1,
            "catchResponse": -1,
            "catchResponseTime": -1,
            "pseudoRound": false,
            "trialTime": 15716
        },
        {
            "exptPart": "trial",
            "trialNumber": 32,
            "roleCurrent": "bullshitDetector",
            "marblesSampled": 10,
            "asymm": true,
            "probBullshitterRed": 0.2,
            "probBullshitDetectorRed": 0.5,
            "probGlobal": 0.21875,
            "drawnRed": 1,
            "reportedDrawn": 6,
            "compLie": 6,
            "compUnifLie": false,
            "compDetect": -1,
            "callBS": false,
            "playerTrialScore": 4,
            "oppTrialScore": 6,
            "playerTotalScore": 120,
            "oppTotalScore": 115,
            "waitTime": 5528.832279459433,
            "responseTime": 5049,
            "catchQuestion": "How many red marbles did your opponent report drawing?",
            "catchKey": -1,
            "catchResponse": -1,
            "catchResponseTime": -1,
            "pseudoRound": false,
            "trialTime": 12192
        },
        {
            "exptPart": "trial",
            "trialNumber": 33,
            "roleCurrent": "bullshitter",
            "marblesSampled": 10,
            "asymm": true,
            "probBullshitterRed": 0.8,
            "probBullshitDetectorRed": 0.5,
            "probGlobal": 0.78125,
            "drawnRed": 7,
            "reportedDrawn": 6,
            "compLie": -1,
            "compUnifLie": false,
            "compDetect": 0.705078125,
            "callBS": true,
            "playerTrialScore": -5,
            "oppTrialScore": 5,
            "playerTotalScore": 115,
            "oppTotalScore": 120,
            "waitTime": 2392.0054005524144,
            "responseTime": 4495,
            "catchQuestion": "How many red marbles did your opponent report drawing?",
            "catchKey": -1,
            "catchResponse": -1,
            "catchResponseTime": -1,
            "pseudoRound": false,
            "trialTime": 12279
        },
        {
            "exptPart": "trial",
            "trialNumber": 34,
            "roleCurrent": "bullshitDetector",
            "marblesSampled": 10,
            "asymm": false,
            "probBullshitterRed": 0.5,
            "probBullshitDetectorRed": 0.5,
            "probGlobal": 0.5,
            "drawnRed": 6,
            "reportedDrawn": 6,
            "compLie": 4,
            "compUnifLie": false,
            "compDetect": -1,
            "callBS": false,
            "playerTrialScore": 4,
            "oppTrialScore": 6,
            "playerTotalScore": 119,
            "oppTotalScore": 126,
            "waitTime": 5906.891120171529,
            "responseTime": 2803,
            "catchQuestion": "How many red marbles did your opponent report drawing?",
            "catchKey": -1,
            "catchResponse": -1,
            "catchResponseTime": -1,
            "pseudoRound": false,
            "trialTime": 9926
        },
        {
            "exptPart": "trial",
            "trialNumber": 35,
            "roleCurrent": "bullshitter",
            "marblesSampled": 10,
            "asymm": true,
            "probBullshitterRed": 0.5,
            "probBullshitDetectorRed": 0.8,
            "probGlobal": 0.51875,
            "drawnRed": 9,
            "reportedDrawn": 9,
            "compLie": -1,
            "compUnifLie": false,
            "compDetect": 0.7684354560000002,
            "callBS": true,
            "playerTrialScore": 9,
            "oppTrialScore": -4,
            "playerTotalScore": 128,
            "oppTotalScore": 122,
            "waitTime": 2920.1560993601643,
            "responseTime": 3046,
            "catchQuestion": "How many red marbles did your opponent report drawing?",
            "catchKey": -1,
            "catchResponse": -1,
            "catchResponseTime": -1,
            "pseudoRound": true,
            "trialTime": 12215
        },
        {
            "exptPart": "trial",
            "trialNumber": 36,
            "roleCurrent": "bullshitDetector",
            "marblesSampled": 10,
            "asymm": true,
            "probBullshitterRed": 0.8,
            "probBullshitDetectorRed": 0.2,
            "probGlobal": 0.7625,
            "drawnRed": 8,
            "reportedDrawn": 8,
            "compLie": 3,
            "compUnifLie": false,
            "compDetect": -1,
            "callBS": true,
            "playerTrialScore": -3,
            "oppTrialScore": 8,
            "playerTotalScore": 125,
            "oppTotalScore": 130,
            "waitTime": 5501.96886340439,
            "responseTime": 6889,
            "catchQuestion": "How many red marbles did your opponent report drawing?",
            "catchKey": -1,
            "catchResponse": -1,
            "catchResponseTime": -1,
            "pseudoRound": false,
            "trialTime": 14303
        },
        {
            "exptPart": "trial",
            "trialNumber": 37,
            "roleCurrent": "bullshitter",
            "marblesSampled": 10,
            "asymm": true,
            "probBullshitterRed": 0.8,
            "probBullshitDetectorRed": 0.2,
            "probGlobal": 0.7625,
            "drawnRed": 10,
            "reportedDrawn": 10,
            "compLie": -1,
            "compUnifLie": false,
            "compDetect": 0.8222004736000001,
            "callBS": false,
            "playerTrialScore": 10,
            "oppTrialScore": 0,
            "playerTotalScore": 135,
            "oppTotalScore": 130,
            "waitTime": 3224.9895926722606,
            "responseTime": 6335,
            "catchQuestion": "How many red marbles did your opponent report drawing?",
            "catchKey": -1,
            "catchResponse": -1,
            "catchResponseTime": -1,
            "pseudoRound": false,
            "trialTime": 25818
        },
        {
            "exptPart": "trial",
            "trialNumber": 38,
            "roleCurrent": "bullshitDetector",
            "marblesSampled": 10,
            "asymm": true,
            "probBullshitterRed": 0.8,
            "probBullshitDetectorRed": 0.5,
            "probGlobal": 0.78125,
            "drawnRed": 6,
            "reportedDrawn": 6,
            "compLie": 6,
            "compUnifLie": false,
            "compDetect": -1,
            "callBS": false,
            "playerTrialScore": 4,
            "oppTrialScore": 6,
            "playerTotalScore": 139,
            "oppTotalScore": 136,
            "waitTime": 5806.451810362376,
            "responseTime": 3518,
            "catchQuestion": "How many red marbles did your opponent report drawing?",
            "catchKey": -1,
            "catchResponse": -1,
            "catchResponseTime": -1,
            "pseudoRound": false,
            "trialTime": 11044
        },
        {
            "exptPart": "trial",
            "trialNumber": 39,
            "roleCurrent": "bullshitter",
            "marblesSampled": 10,
            "asymm": false,
            "probBullshitterRed": 0.2,
            "probBullshitDetectorRed": 0.2,
            "probGlobal": 0.2,
            "drawnRed": 2,
            "reportedDrawn": 1,
            "compLie": -1,
            "compUnifLie": false,
            "compDetect": 0.19801011199999963,
            "callBS": false,
            "playerTrialScore": 1,
            "oppTrialScore": 9,
            "playerTotalScore": 140,
            "oppTotalScore": 145,
            "waitTime": 2137.634156168022,
            "responseTime": 4927,
            "catchQuestion": "How many red marbles did your opponent report drawing?",
            "catchKey": -1,
            "catchResponse": -1,
            "catchResponseTime": -1,
            "pseudoRound": false,
            "trialTime": 11024
        },
        {
            "exptPart": "trial",
            "trialNumber": 40,
            "roleCurrent": "bullshitDetector",
            "marblesSampled": 10,
            "asymm": false,
            "probBullshitterRed": 0.8,
            "probBullshitDetectorRed": 0.8,
            "probGlobal": 0.8,
            "drawnRed": 4,
            "reportedDrawn": 10,
            "compLie": 10,
            "compUnifLie": false,
            "compDetect": -1,
            "callBS": false,
            "playerTrialScore": 0,
            "oppTrialScore": 10,
            "playerTotalScore": 140,
            "oppTotalScore": 155,
            "waitTime": 5971.9371104173615,
            "responseTime": 5109,
            "catchQuestion": "How many red marbles did your opponent report drawing?",
            "catchKey": -1,
            "catchResponse": -1,
            "catchResponseTime": -1,
            "pseudoRound": false,
            "trialTime": 13056
        },
        {
            "exptPart": "trial",
            "trialNumber": 41,
            "roleCurrent": "bullshitter",
            "marblesSampled": 10,
            "asymm": true,
            "probBullshitterRed": 0.2,
            "probBullshitDetectorRed": 0.8,
            "probGlobal": 0.2375,
            "drawnRed": 7,
            "reportedDrawn": 7,
            "compLie": -1,
            "compUnifLie": false,
            "compDetect": 0.19801011199999996,
            "callBS": true,
            "playerTrialScore": 7,
            "oppTrialScore": -2,
            "playerTotalScore": 147,
            "oppTotalScore": 153,
            "waitTime": 3153.429142758185,
            "responseTime": 12283,
            "catchQuestion": "What was the proportion of red to blue marbles from your perspective?",
            "catchKey": 23.75,
            "catchResponse": "59",
            "catchResponseTime": 6541,
            "pseudoRound": false,
            "trialTime": 29720
        },
        {
            "exptPart": "trial",
            "trialNumber": 42,
            "roleCurrent": "bullshitDetector",
            "marblesSampled": 10,
            "asymm": true,
            "probBullshitterRed": 0.8,
            "probBullshitDetectorRed": 0.2,
            "probGlobal": 0.7625,
            "drawnRed": 6,
            "reportedDrawn": 6,
            "compLie": 1,
            "compUnifLie": false,
            "compDetect": -1,
            "callBS": false,
            "playerTrialScore": 4,
            "oppTrialScore": 6,
            "playerTotalScore": 151,
            "oppTotalScore": 159,
            "waitTime": 5458.01272522681,
            "responseTime": 3532,
            "catchQuestion": "What was the proportion of red to blue marbles from your perspective?",
            "catchKey": -1,
            "catchResponse": -1,
            "catchResponseTime": -1,
            "pseudoRound": false,
            "trialTime": 10952
        },
        {
            "exptPart": "trial",
            "trialNumber": 43,
            "roleCurrent": "bullshitter",
            "marblesSampled": 10,
            "asymm": false,
            "probBullshitterRed": 0.8,
            "probBullshitDetectorRed": 0.8,
            "probGlobal": 0.8,
            "drawnRed": 6,
            "reportedDrawn": 6,
            "compLie": -1,
            "compUnifLie": false,
            "compDetect": -0.0033164800000000383,
            "callBS": false,
            "playerTrialScore": 6,
            "oppTrialScore": 4,
            "playerTotalScore": 157,
            "oppTotalScore": 163,
            "waitTime": 2113.248985136128,
            "responseTime": 4190,
            "catchQuestion": "What was the proportion of red to blue marbles from your perspective?",
            "catchKey": -1,
            "catchResponse": -1,
            "catchResponseTime": -1,
            "pseudoRound": false,
            "trialTime": 11191
        },
        {
            "exptPart": "trial",
            "trialNumber": 44,
            "roleCurrent": "bullshitDetector",
            "marblesSampled": 10,
            "asymm": true,
            "probBullshitterRed": 0.8,
            "probBullshitDetectorRed": 0.2,
            "probGlobal": 0.7625,
            "drawnRed": 10,
            "reportedDrawn": 10,
            "compLie": 1,
            "compUnifLie": false,
            "compDetect": -1,
            "callBS": false,
            "playerTrialScore": 0,
            "oppTrialScore": 10,
            "playerTotalScore": 157,
            "oppTotalScore": 173,
            "waitTime": 5776.2017319556,
            "responseTime": 34925,
            "catchQuestion": "What was the proportion of red to blue marbles from your perspective?",
            "catchKey": -1,
            "catchResponse": -1,
            "catchResponseTime": -1,
            "pseudoRound": false,
            "trialTime": 42590
        },
        {
            "exptPart": "trial",
            "trialNumber": 45,
            "roleCurrent": "bullshitter",
            "marblesSampled": 10,
            "asymm": false,
            "probBullshitterRed": 0.5,
            "probBullshitDetectorRed": 0.5,
            "probGlobal": 0.5,
            "drawnRed": 7,
            "reportedDrawn": 7,
            "compLie": -1,
            "compUnifLie": false,
            "compDetect": 0.822265625,
            "callBS": true,
            "playerTrialScore": 7,
            "oppTrialScore": -2,
            "playerTotalScore": 164,
            "oppTotalScore": 171,
            "waitTime": 2902.3356656935894,
            "responseTime": 9926,
            "catchQuestion": "What was the proportion of red to blue marbles from your perspective?",
            "catchKey": -1,
            "catchResponse": -1,
            "catchResponseTime": -1,
            "pseudoRound": false,
            "trialTime": 19107
        },
        {
            "exptPart": "trial",
            "trialNumber": 46,
            "roleCurrent": "bullshitDetector",
            "marblesSampled": 10,
            "asymm": true,
            "probBullshitterRed": 0.5,
            "probBullshitDetectorRed": 0.8,
            "probGlobal": 0.51875,
            "drawnRed": 4,
            "reportedDrawn": 10,
            "compLie": 10,
            "compUnifLie": false,
            "compDetect": -1,
            "callBS": true,
            "playerTrialScore": 5,
            "oppTrialScore": -5,
            "playerTotalScore": 169,
            "oppTotalScore": 166,
            "waitTime": 7281.119357757654,
            "responseTime": 2981,
            "catchQuestion": "How many red marbles did your opponent report drawing?",
            "catchKey": 10,
            "catchResponse": 10,
            "catchResponseTime": 3790,
            "pseudoRound": false,
            "trialTime": 15629
        },
        {
            "exptPart": "trial",
            "trialNumber": 47,
            "roleCurrent": "bullshitter",
            "marblesSampled": 10,
            "asymm": false,
            "probBullshitterRed": 0.2,
            "probBullshitDetectorRed": 0.2,
            "probGlobal": 0.2,
            "drawnRed": 1,
            "reportedDrawn": 2,
            "compLie": -1,
            "compUnifLie": false,
            "compDetect": 0.5,
            "callBS": false,
            "playerTrialScore": 2,
            "oppTrialScore": 8,
            "playerTotalScore": 171,
            "oppTotalScore": 174,
            "waitTime": 2258.286822427519,
            "responseTime": 9414,
            "catchQuestion": "How many red marbles did your opponent report drawing?",
            "catchKey": -1,
            "catchResponse": -1,
            "catchResponseTime": -1,
            "pseudoRound": false,
            "trialTime": 16528
        },
        {
            "exptPart": "trial",
            "trialNumber": 48,
            "roleCurrent": "bullshitDetector",
            "marblesSampled": 10,
            "asymm": true,
            "probBullshitterRed": 0.5,
            "probBullshitDetectorRed": 0.2,
            "probGlobal": 0.48125,
            "drawnRed": 6,
            "reportedDrawn": 6,
            "compLie": 4,
            "compUnifLie": false,
            "compDetect": -1,
            "callBS": false,
            "playerTrialScore": 4,
            "oppTrialScore": 6,
            "playerTotalScore": 175,
            "oppTotalScore": 180,
            "waitTime": 5277.236494922965,
            "responseTime": 4042,
            "catchQuestion": "How many red marbles did your opponent report drawing?",
            "catchKey": -1,
            "catchResponse": -1,
            "catchResponseTime": -1,
            "pseudoRound": false,
            "trialTime": 12638
        },
        {
            "exptPart": "trial",
            "trialNumber": 49,
            "roleCurrent": "bullshitter",
            "marblesSampled": 10,
            "asymm": true,
            "probBullshitterRed": 0.8,
            "probBullshitDetectorRed": 0.5,
            "probGlobal": 0.78125,
            "drawnRed": 9,
            "reportedDrawn": 9,
            "compLie": -1,
            "compUnifLie": false,
            "compDetect": 0.8759765625,
            "callBS": true,
            "playerTrialScore": 9,
            "oppTrialScore": -4,
            "playerTotalScore": 184,
            "oppTotalScore": 176,
            "waitTime": 2721.928413912304,
            "responseTime": 5247,
            "catchQuestion": "How many red marbles did your opponent report drawing?",
            "catchKey": -1,
            "catchResponse": -1,
            "catchResponseTime": -1,
            "pseudoRound": false,
            "trialTime": 12883
        },
        {
            "exptPart": "trial",
            "trialNumber": 50,
            "roleCurrent": "bullshitDetector",
            "marblesSampled": 10,
            "asymm": false,
            "probBullshitterRed": 0.5,
            "probBullshitDetectorRed": 0.5,
            "probGlobal": 0.5,
            "drawnRed": 5,
            "reportedDrawn": 5,
            "compLie": 5,
            "compUnifLie": false,
            "compDetect": -1,
            "callBS": false,
            "playerTrialScore": 5,
            "oppTrialScore": 5,
            "playerTotalScore": 189,
            "oppTotalScore": 181,
            "waitTime": 5305.39162862649,
            "responseTime": 2066,
            "catchQuestion": "How many red marbles did your opponent report drawing?",
            "catchKey": 5,
            "catchResponse": 5,
            "catchResponseTime": 2967,
            "pseudoRound": false,
            "trialTime": 12322
        },
        {
            "exptPart": "trial",
            "trialNumber": 51,
            "roleCurrent": "bullshitter",
            "marblesSampled": 10,
            "asymm": true,
            "probBullshitterRed": 0.8,
            "probBullshitDetectorRed": 0.5,
            "probGlobal": 0.78125,
            "drawnRed": 9,
            "reportedDrawn": 9,
            "compLie": -1,
            "compUnifLie": false,
            "compDetect": 0.8759765625,
            "callBS": true,
            "playerTrialScore": 9,
            "oppTrialScore": -4,
            "playerTotalScore": 198,
            "oppTotalScore": 177,
            "waitTime": 2882.0129591962136,
            "responseTime": 79598,
            "catchQuestion": "How many red marbles did your opponent report drawing?",
            "catchKey": -1,
            "catchResponse": -1,
            "catchResponseTime": -1,
            "pseudoRound": false,
            "trialTime": 87651
        },
        {
            "exptPart": "trial",
            "trialNumber": 52,
            "roleCurrent": "bullshitDetector",
            "marblesSampled": 10,
            "asymm": false,
            "probBullshitterRed": 0.8,
            "probBullshitDetectorRed": 0.8,
            "probGlobal": 0.8,
            "drawnRed": 9,
            "reportedDrawn": 3,
            "compLie": -1,
            "compUnifLie": false,
            "compDetect": 0.8759765625,
            "callBS": false,
            "playerTrialScore": 7,
            "oppTrialScore": 3,
            "playerTotalScore": 205,
            "oppTotalScore": 180,
            "waitTime": 5650.972299655148,
            "responseTime": 10230,
            "catchQuestion": "What was the proportion of red to blue marbles from your perspective?",
            "catchKey": 80,
            "catchResponse": "82",
            "catchResponseTime": 5934,
            "pseudoRound": true,
            "trialTime": 23518
        },
        {
            "exptPart": "trial",
            "trialNumber": 53,
            "roleCurrent": "bullshitter",
            "marblesSampled": 10,
            "asymm": true,
            "probBullshitterRed": 0.5,
            "probBullshitDetectorRed": 0.2,
            "probGlobal": 0.48125,
            "drawnRed": 3,
            "reportedDrawn": 2,
            "compLie": -1,
            "compUnifLie": false,
            "compDetect": 0.5,
            "callBS": true,
            "playerTrialScore": -5,
            "oppTrialScore": 5,
            "playerTotalScore": 200,
            "oppTotalScore": 185,
            "waitTime": 2904.9214230516473,
            "responseTime": 10560,
            "catchQuestion": "What was the proportion of red to blue marbles from your perspective?",
            "catchKey": -1,
            "catchResponse": -1,
            "catchResponseTime": -1,
            "pseudoRound": false,
            "trialTime": 22579
        },
        {
            "exptPart": "trial",
            "trialNumber": 54,
            "roleCurrent": "bullshitDetector",
            "marblesSampled": 10,
            "asymm": true,
            "probBullshitterRed": 0.2,
            "probBullshitDetectorRed": 0.5,
            "probGlobal": 0.21875,
            "drawnRed": 2,
            "reportedDrawn": 8,
            "compLie": 8,
            "compUnifLie": false,
            "compDetect": -1,
            "callBS": false,
            "playerTrialScore": 2,
            "oppTrialScore": 8,
            "playerTotalScore": 202,
            "oppTotalScore": 193,
            "waitTime": 7161.286201341114,
            "responseTime": 9384,
            "catchQuestion": "What was the proportion of red to blue marbles from your perspective?",
            "catchKey": -1,
            "catchResponse": -1,
            "catchResponseTime": -1,
            "pseudoRound": false,
            "trialTime": 18226
        },
        {
            "exptPart": "trial",
            "trialNumber": 55,
            "roleCurrent": "bullshitter",
            "marblesSampled": 10,
            "asymm": true,
            "probBullshitterRed": 0.5,
            "probBullshitDetectorRed": 0.8,
            "probGlobal": 0.51875,
            "drawnRed": 6,
            "reportedDrawn": 6,
            "compLie": -1,
            "compUnifLie": false,
            "compDetect": -0.0033164800000000383,
            "callBS": false,
            "playerTrialScore": 6,
            "oppTrialScore": 4,
            "playerTotalScore": 208,
            "oppTotalScore": 197,
            "waitTime": 2730.8706337065855,
            "responseTime": 5148,
            "catchQuestion": "What was the proportion of red to blue marbles from your perspective?",
            "catchKey": -1,
            "catchResponse": -1,
            "catchResponseTime": -1,
            "pseudoRound": false,
            "trialTime": 14015
        },
        {
            "exptPart": "trial",
            "trialNumber": 56,
            "roleCurrent": "bullshitDetector",
            "marblesSampled": 10,
            "asymm": true,
            "probBullshitterRed": 0.5,
            "probBullshitDetectorRed": 0.2,
            "probGlobal": 0.48125,
            "drawnRed": 4,
            "reportedDrawn": 10,
            "compLie": -1,
            "compUnifLie": false,
            "compDetect": -0.0033164800000000383,
            "callBS": false,
            "playerTrialScore": 0,
            "oppTrialScore": 10,
            "playerTotalScore": 208,
            "oppTotalScore": 207,
            "waitTime": 6615.326764099855,
            "responseTime": 4909,
            "catchQuestion": "What was the proportion of red to blue marbles from your perspective?",
            "catchKey": -1,
            "catchResponse": -1,
            "catchResponseTime": -1,
            "pseudoRound": true,
            "trialTime": 12957
        },
        {
            "exptPart": "trial",
            "trialNumber": 57,
            "roleCurrent": "bullshitter",
            "marblesSampled": 10,
            "asymm": true,
            "probBullshitterRed": 0.8,
            "probBullshitDetectorRed": 0.2,
            "probGlobal": 0.7625,
            "drawnRed": 8,
            "reportedDrawn": 8,
            "compLie": -1,
            "compUnifLie": false,
            "compDetect": 0.8221962752000003,
            "callBS": true,
            "playerTrialScore": 8,
            "oppTrialScore": -3,
            "playerTotalScore": 216,
            "oppTotalScore": 204,
            "waitTime": 2077.5724987963386,
            "responseTime": 3559,
            "catchQuestion": "What was the proportion of red to blue marbles from your perspective?",
            "catchKey": 76.25,
            "catchResponse": "77",
            "catchResponseTime": 5670,
            "pseudoRound": false,
            "trialTime": 15651
        },
        {
            "exptPart": "trial",
            "trialNumber": 58,
            "roleCurrent": "bullshitDetector",
            "marblesSampled": 10,
            "asymm": true,
            "probBullshitterRed": 0.8,
            "probBullshitDetectorRed": 0.2,
            "probGlobal": 0.7625,
            "drawnRed": 7,
            "reportedDrawn": 7,
            "compLie": 2,
            "compUnifLie": false,
            "compDetect": -1,
            "callBS": false,
            "playerTrialScore": 3,
            "oppTrialScore": 7,
            "playerTotalScore": 219,
            "oppTotalScore": 211,
            "waitTime": 5157.284443236591,
            "responseTime": 2994,
            "catchQuestion": "What was the proportion of red to blue marbles from your perspective?",
            "catchKey": -1,
            "catchResponse": -1,
            "catchResponseTime": -1,
            "pseudoRound": false,
            "trialTime": 9984
        },
        {
            "exptPart": "trial",
            "trialNumber": 59,
            "roleCurrent": "bullshitter",
            "marblesSampled": 10,
            "asymm": false,
            "probBullshitterRed": 0.5,
            "probBullshitDetectorRed": 0.5,
            "probGlobal": 0.5,
            "drawnRed": 6,
            "reportedDrawn": 6,
            "compLie": -1,
            "compUnifLie": false,
            "compDetect": 0.705078125,
            "callBS": false,
            "playerTrialScore": 6,
            "oppTrialScore": 4,
            "playerTotalScore": 225,
            "oppTotalScore": 215,
            "waitTime": 2321.0860081408723,
            "responseTime": 8635,
            "catchQuestion": "What was the proportion of red to blue marbles from your perspective?",
            "catchKey": -1,
            "catchResponse": -1,
            "catchResponseTime": -1,
            "pseudoRound": false,
            "trialTime": 17747
        },
        {
            "exptPart": "trial",
            "trialNumber": 60,
            "roleCurrent": "bullshitDetector",
            "marblesSampled": 10,
            "asymm": false,
            "probBullshitterRed": 0.8,
            "probBullshitDetectorRed": 0.8,
            "probGlobal": 0.8,
            "drawnRed": 8,
            "reportedDrawn": 8,
            "compLie": 7,
            "compUnifLie": false,
            "compDetect": -1,
            "callBS": true,
            "playerTrialScore": -3,
            "oppTrialScore": 8,
            "playerTotalScore": 222,
            "oppTotalScore": 223,
            "waitTime": 5651.071166057138,
            "responseTime": 3702,
            "catchQuestion": "What was the proportion of red to blue marbles from your perspective?",
            "catchKey": -1,
            "catchResponse": -1,
            "catchResponseTime": -1,
            "pseudoRound": false,
            "trialTime": 11449
        },
        {
            "exptPart": "trial",
            "trialNumber": 61,
            "roleCurrent": "bullshitter",
            "marblesSampled": 10,
            "asymm": true,
            "probBullshitterRed": 0.5,
            "probBullshitDetectorRed": 0.2,
            "probGlobal": 0.48125,
            "drawnRed": 6,
            "reportedDrawn": 4,
            "compLie": -1,
            "compUnifLie": false,
            "compDetect": 0.7894069760000003,
            "callBS": false,
            "playerTrialScore": 4,
            "oppTrialScore": 6,
            "playerTotalScore": 226,
            "oppTotalScore": 229,
            "waitTime": 2414.5824238438117,
            "responseTime": 7491,
            "catchQuestion": "What was the proportion of red to blue marbles from your perspective?",
            "catchKey": -1,
            "catchResponse": -1,
            "catchResponseTime": -1,
            "pseudoRound": false,
            "trialTime": 17090
        },
        {
            "exptPart": "trial",
            "trialNumber": 62,
            "roleCurrent": "bullshitDetector",
            "marblesSampled": 10,
            "asymm": false,
            "probBullshitterRed": 0.2,
            "probBullshitDetectorRed": 0.2,
            "probGlobal": 0.2,
            "drawnRed": 4,
            "reportedDrawn": 4,
            "compLie": 2,
            "compUnifLie": false,
            "compDetect": -1,
            "callBS": false,
            "playerTrialScore": 6,
            "oppTrialScore": 4,
            "playerTotalScore": 232,
            "oppTotalScore": 233,
            "waitTime": 5511.6855516488495,
            "responseTime": 7286,
            "catchQuestion": "How many red marbles did your opponent report drawing?",
            "catchKey": 4,
            "catchResponse": 4,
            "catchResponseTime": 2806,
            "pseudoRound": false,
            "trialTime": 17773
        },
        {
            "exptPart": "trial",
            "trialNumber": 63,
            "roleCurrent": "bullshitter",
            "marblesSampled": 10,
            "asymm": true,
            "probBullshitterRed": 0.5,
            "probBullshitDetectorRed": 0.2,
            "probGlobal": 0.48125,
            "drawnRed": 4,
            "reportedDrawn": 2,
            "compLie": -1,
            "compUnifLie": false,
            "compDetect": 0.5,
            "callBS": false,
            "playerTrialScore": 2,
            "oppTrialScore": 8,
            "playerTotalScore": 234,
            "oppTotalScore": 241,
            "waitTime": 2794.3477109538026,
            "responseTime": 5075,
            "catchQuestion": "How many red marbles did your opponent report drawing?",
            "catchKey": -1,
            "catchResponse": -1,
            "catchResponseTime": -1,
            "pseudoRound": false,
            "trialTime": 25362
        },
        {
            "exptPart": "trial",
            "trialNumber": 64,
            "roleCurrent": "bullshitDetector",
            "marblesSampled": 10,
            "asymm": true,
            "probBullshitterRed": 0.2,
            "probBullshitDetectorRed": 0.8,
            "probGlobal": 0.2375,
            "drawnRed": 1,
            "reportedDrawn": 10,
            "compLie": 10,
            "compUnifLie": false,
            "compDetect": -1,
            "callBS": false,
            "playerTrialScore": 0,
            "oppTrialScore": 10,
            "playerTotalScore": 234,
            "oppTotalScore": 251,
            "waitTime": 7052.86138664702,
            "responseTime": 17356,
            "catchQuestion": "How many red marbles did your opponent report drawing?",
            "catchKey": 10,
            "catchResponse": 10,
            "catchResponseTime": 6260,
            "pseudoRound": false,
            "trialTime": 31932
        },
        {
            "exptPart": "trial",
            "trialNumber": 65,
            "roleCurrent": "bullshitter",
            "marblesSampled": 10,
            "asymm": true,
            "probBullshitterRed": 0.8,
            "probBullshitDetectorRed": 0.5,
            "probGlobal": 0.78125,
            "drawnRed": 2,
            "reportedDrawn": 3,
            "compLie": -1,
            "compUnifLie": false,
            "compDetect": 0.048828125,
            "callBS": false,
            "playerTrialScore": 3,
            "oppTrialScore": 7,
            "playerTotalScore": 237,
            "oppTotalScore": 258,
            "waitTime": 3037.1446200668333,
            "responseTime": 4581,
            "catchQuestion": "How many red marbles did your opponent report drawing?",
            "catchKey": -1,
            "catchResponse": -1,
            "catchResponseTime": -1,
            "pseudoRound": true,
            "trialTime": 16576
        },
        {
            "exptPart": "trial",
            "trialNumber": 66,
            "roleCurrent": "bullshitDetector",
            "marblesSampled": 10,
            "asymm": false,
            "probBullshitterRed": 0.8,
            "probBullshitDetectorRed": 0.8,
            "probGlobal": 0.8,
            "drawnRed": 6,
            "reportedDrawn": 0,
            "compLie": -1,
            "compUnifLie": true,
            "compDetect": 0.048828125,
            "callBS": false,
            "playerTrialScore": 10,
            "oppTrialScore": 0,
            "playerTotalScore": 247,
            "oppTotalScore": 258,
            "waitTime": 5623.9920964137755,
            "responseTime": 9269,
            "catchQuestion": "How many red marbles did your opponent report drawing?",
            "catchKey": -1,
            "catchResponse": -1,
            "catchResponseTime": -1,
            "pseudoRound": false,
            "trialTime": 16541
        },
        {
            "exptPart": "trial",
            "trialNumber": 67,
            "roleCurrent": "bullshitter",
            "marblesSampled": 10,
            "asymm": false,
            "probBullshitterRed": 0.8,
            "probBullshitDetectorRed": 0.8,
            "probGlobal": 0.8,
            "drawnRed": 0,
            "reportedDrawn": 4,
            "compLie": -1,
            "compUnifLie": false,
            "compDetect": -0.11782097919999997,
            "callBS": false,
            "playerTrialScore": 4,
            "oppTrialScore": 6,
            "playerTotalScore": 251,
            "oppTotalScore": 264,
            "waitTime": 3034.2086473002973,
            "responseTime": 16349,
            "catchQuestion": "How many red marbles did your opponent report drawing?",
            "catchKey": -1,
            "catchResponse": -1,
            "catchResponseTime": -1,
            "pseudoRound": true,
            "trialTime": 24013
        },
        {
            "exptPart": "trial",
            "trialNumber": 68,
            "roleCurrent": "bullshitDetector",
            "marblesSampled": 10,
            "asymm": false,
            "probBullshitterRed": 0.2,
            "probBullshitDetectorRed": 0.2,
            "probGlobal": 0.2,
            "drawnRed": 0,
            "reportedDrawn": 4,
            "compLie": -1,
            "compUnifLie": false,
            "compDetect": -0.11782097919999997,
            "callBS": false,
            "playerTrialScore": 6,
            "oppTrialScore": 4,
            "playerTotalScore": 257,
            "oppTotalScore": 268,
            "waitTime": 5360.136585774966,
            "responseTime": 2124,
            "catchQuestion": "How many red marbles did your opponent report drawing?",
            "catchKey": -1,
            "catchResponse": -1,
            "catchResponseTime": -1,
            "pseudoRound": true,
            "trialTime": 9525
        },
        {
            "exptPart": "trial",
            "trialNumber": 69,
            "roleCurrent": "bullshitter",
            "marblesSampled": 10,
            "asymm": false,
            "probBullshitterRed": 0.5,
            "probBullshitDetectorRed": 0.5,
            "probGlobal": 0.5,
            "drawnRed": 7,
            "reportedDrawn": 7,
            "compLie": -1,
            "compUnifLie": false,
            "compDetect": 0.822265625,
            "callBS": true,
            "playerTrialScore": 7,
            "oppTrialScore": -2,
            "playerTotalScore": 264,
            "oppTotalScore": 266,
            "waitTime": 2238.249678196429,
            "responseTime": 7181,
            "catchQuestion": "How many red marbles did your opponent report drawing?",
            "catchKey": -1,
            "catchResponse": -1,
            "catchResponseTime": -1,
            "pseudoRound": false,
            "trialTime": 14130
        },
        {
            "exptPart": "trial",
            "trialNumber": 70,
            "roleCurrent": "bullshitDetector",
            "marblesSampled": 10,
            "asymm": false,
            "probBullshitterRed": 0.2,
            "probBullshitDetectorRed": 0.2,
            "probGlobal": 0.2,
            "drawnRed": 1,
            "reportedDrawn": 3,
            "compLie": 3,
            "compUnifLie": false,
            "compDetect": -1,
            "callBS": false,
            "playerTrialScore": 7,
            "oppTrialScore": 3,
            "playerTotalScore": 271,
            "oppTotalScore": 269,
            "waitTime": 6283.917991441673,
            "responseTime": 3561,
            "catchQuestion": "How many red marbles did your opponent report drawing?",
            "catchKey": -1,
            "catchResponse": -1,
            "catchResponseTime": -1,
            "pseudoRound": false,
            "trialTime": 11822
        },
        {
            "exptPart": "trial",
            "trialNumber": 71,
            "roleCurrent": "bullshitter",
            "marblesSampled": 10,
            "asymm": true,
            "probBullshitterRed": 0.2,
            "probBullshitDetectorRed": 0.8,
            "probGlobal": 0.2375,
            "drawnRed": 1,
            "reportedDrawn": 4,
            "compLie": -1,
            "compUnifLie": false,
            "compDetect": -0.11782097919999997,
            "callBS": false,
            "playerTrialScore": 4,
            "oppTrialScore": 6,
            "playerTotalScore": 275,
            "oppTotalScore": 275,
            "waitTime": 3057.2029761804674,
            "responseTime": 11439,
            "catchQuestion": "How many red marbles did your opponent report drawing?",
            "catchKey": -1,
            "catchResponse": -1,
            "catchResponseTime": -1,
            "pseudoRound": false,
            "trialTime": 19268
        },
        {
            "exptPart": "trial",
            "trialNumber": 72,
            "roleCurrent": "bullshitDetector",
            "marblesSampled": 10,
            "asymm": true,
            "probBullshitterRed": 0.8,
            "probBullshitDetectorRed": 0.5,
            "probGlobal": 0.78125,
            "drawnRed": 10,
            "reportedDrawn": 9,
            "compLie": -1,
            "compUnifLie": false,
            "compDetect": -0.11782097919999997,
            "callBS": false,
            "playerTrialScore": 1,
            "oppTrialScore": 9,
            "playerTotalScore": 276,
            "oppTotalScore": 284,
            "waitTime": 6784.388443523103,
            "responseTime": 2934,
            "catchQuestion": "How many red marbles did your opponent report drawing?",
            "catchKey": 9,
            "catchResponse": 9,
            "catchResponseTime": 2462,
            "pseudoRound": true,
            "trialTime": 13612
        },
        {
            "exptPart": "trial",
            "trialNumber": 73,
            "roleCurrent": "bullshitter",
            "marblesSampled": 10,
            "asymm": true,
            "probBullshitterRed": 0.2,
            "probBullshitDetectorRed": 0.8,
            "probGlobal": 0.2375,
            "drawnRed": 3,
            "reportedDrawn": 5,
            "compLie": -1,
            "compUnifLie": false,
            "compDetect": -0.091396864,
            "callBS": false,
            "playerTrialScore": 5,
            "oppTrialScore": 5,
            "playerTotalScore": 281,
            "oppTotalScore": 289,
            "waitTime": 2259.318274006432,
            "responseTime": 6059,
            "catchQuestion": "How many red marbles did your opponent report drawing?",
            "catchKey": -1,
            "catchResponse": -1,
            "catchResponseTime": -1,
            "pseudoRound": false,
            "trialTime": 14391
        },
        {
            "exptPart": "trial",
            "trialNumber": 74,
            "roleCurrent": "bullshitDetector",
            "marblesSampled": 10,
            "asymm": true,
            "probBullshitterRed": 0.5,
            "probBullshitDetectorRed": 0.2,
            "probGlobal": 0.48125,
            "drawnRed": 6,
            "reportedDrawn": 6,
            "compLie": 4,
            "compUnifLie": false,
            "compDetect": -1,
            "callBS": true,
            "playerTrialScore": -1,
            "oppTrialScore": 6,
            "playerTotalScore": 280,
            "oppTotalScore": 295,
            "waitTime": 5871.354821413757,
            "responseTime": 4226,
            "catchQuestion": "How many red marbles did your opponent report drawing?",
            "catchKey": -1,
            "catchResponse": -1,
            "catchResponseTime": -1,
            "pseudoRound": false,
            "trialTime": 14358
        },
        {
            "exptPart": "trial",
            "trialNumber": 75,
            "roleCurrent": "bullshitter",
            "marblesSampled": 10,
            "asymm": false,
            "probBullshitterRed": 0.8,
            "probBullshitDetectorRed": 0.8,
            "probGlobal": 0.8,
            "drawnRed": 7,
            "reportedDrawn": 6,
            "compLie": -1,
            "compUnifLie": false,
            "compDetect": -0.0033164800000000383,
            "callBS": false,
            "playerTrialScore": 6,
            "oppTrialScore": 4,
            "playerTotalScore": 286,
            "oppTotalScore": 299,
            "waitTime": 2630.542078304932,
            "responseTime": 10613,
            "catchQuestion": "How many red marbles did your opponent report drawing?",
            "catchKey": -1,
            "catchResponse": -1,
            "catchResponseTime": -1,
            "pseudoRound": false,
            "trialTime": 18745
        },
        {
            "exptPart": "trial",
            "trialNumber": 76,
            "roleCurrent": "bullshitDetector",
            "marblesSampled": 10,
            "asymm": true,
            "probBullshitterRed": 0.2,
            "probBullshitDetectorRed": 0.5,
            "probGlobal": 0.21875,
            "drawnRed": 1,
            "reportedDrawn": 3,
            "compLie": -1,
            "compUnifLie": true,
            "compDetect": -0.0033164800000000383,
            "callBS": false,
            "playerTrialScore": 7,
            "oppTrialScore": 3,
            "playerTotalScore": 293,
            "oppTotalScore": 302,
            "waitTime": 6901.646266186834,
            "responseTime": 2570,
            "catchQuestion": "How many red marbles did your opponent report drawing?",
            "catchKey": -1,
            "catchResponse": -1,
            "catchResponseTime": -1,
            "pseudoRound": false,
            "trialTime": 10728
        },
        {
            "exptPart": "trial",
            "trialNumber": 77,
            "roleCurrent": "bullshitter",
            "marblesSampled": 10,
            "asymm": true,
            "probBullshitterRed": 0.8,
            "probBullshitDetectorRed": 0.2,
            "probGlobal": 0.7625,
            "drawnRed": 4,
            "reportedDrawn": 2,
            "compLie": -1,
            "compUnifLie": false,
            "compDetect": 0.5,
            "callBS": true,
            "playerTrialScore": -5,
            "oppTrialScore": 5,
            "playerTotalScore": 288,
            "oppTotalScore": 307,
            "waitTime": 2158.0852293858698,
            "responseTime": 5763,
            "catchQuestion": "How many red marbles did your opponent report drawing?",
            "catchKey": -1,
            "catchResponse": -1,
            "catchResponseTime": -1,
            "pseudoRound": true,
            "trialTime": 12338
        },
        {
            "exptPart": "trial",
            "trialNumber": 78,
            "roleCurrent": "bullshitDetector",
            "marblesSampled": 10,
            "asymm": true,
            "probBullshitterRed": 0.8,
            "probBullshitDetectorRed": 0.5,
            "probGlobal": 0.78125,
            "drawnRed": 8,
            "reportedDrawn": 6,
            "compLie": -1,
            "compUnifLie": false,
            "compDetect": 0.5,
            "callBS": false,
            "playerTrialScore": 4,
            "oppTrialScore": 6,
            "playerTotalScore": 292,
            "oppTotalScore": 313,
            "waitTime": 6270.966072131637,
            "responseTime": 9653,
            "catchQuestion": "How many red marbles did your opponent report drawing?",
            "catchKey": -1,
            "catchResponse": -1,
            "catchResponseTime": -1,
            "pseudoRound": true,
            "trialTime": 24439
        },
        {
            "exptPart": "trial",
            "trialNumber": 79,
            "roleCurrent": "bullshitter",
            "marblesSampled": 10,
            "asymm": true,
            "probBullshitterRed": 0.2,
            "probBullshitDetectorRed": 0.8,
            "probGlobal": 0.2375,
            "drawnRed": 6,
            "reportedDrawn": 6,
            "compLie": -1,
            "compUnifLie": false,
            "compDetect": -0.0033164800000000383,
            "callBS": false,
            "playerTrialScore": 6,
            "oppTrialScore": 4,
            "playerTotalScore": 298,
            "oppTotalScore": 317,
            "waitTime": 2384.772502555131,
            "responseTime": 5309,
            "catchQuestion": "How many red marbles did your opponent report drawing?",
            "catchKey": -1,
            "catchResponse": -1,
            "catchResponseTime": -1,
            "pseudoRound": true,
            "trialTime": 13333
        },
        {
            "exptPart": "trial",
            "trialNumber": 80,
            "roleCurrent": "bullshitDetector",
            "marblesSampled": 10,
            "asymm": true,
            "probBullshitterRed": 0.5,
            "probBullshitDetectorRed": 0.2,
            "probGlobal": 0.48125,
            "drawnRed": 4,
            "reportedDrawn": 5,
            "compLie": -1,
            "compUnifLie": false,
            "compDetect": -0.0033164800000000383,
            "callBS": false,
            "playerTrialScore": 5,
            "oppTrialScore": 5,
            "playerTotalScore": 303,
            "oppTotalScore": 322,
            "waitTime": 5965.1803275741295,
            "responseTime": 1940,
            "catchQuestion": "How many red marbles did your opponent report drawing?",
            "catchKey": -1,
            "catchResponse": -1,
            "catchResponseTime": -1,
            "pseudoRound": true,
            "trialTime": 9361
        },
        {
            "exptPart": "trial",
            "trialNumber": 81,
            "roleCurrent": "bullshitter",
            "marblesSampled": 10,
            "asymm": false,
            "probBullshitterRed": 0.2,
            "probBullshitDetectorRed": 0.2,
            "probGlobal": 0.2,
            "drawnRed": 2,
            "reportedDrawn": 2,
            "compLie": -1,
            "compUnifLie": false,
            "compDetect": 0.5,
            "callBS": false,
            "playerTrialScore": 2,
            "oppTrialScore": 8,
            "playerTotalScore": 305,
            "oppTotalScore": 330,
            "waitTime": 2354.7835897417776,
            "responseTime": 11085,
            "catchQuestion": "How many red marbles did your opponent report drawing?",
            "catchKey": -1,
            "catchResponse": -1,
            "catchResponseTime": -1,
            "pseudoRound": false,
            "trialTime": 19659
        },
        {
            "exptPart": "trial",
            "trialNumber": 82,
            "roleCurrent": "bullshitDetector",
            "marblesSampled": 10,
            "asymm": true,
            "probBullshitterRed": 0.8,
            "probBullshitDetectorRed": 0.2,
            "probGlobal": 0.7625,
            "drawnRed": 8,
            "reportedDrawn": 8,
            "compLie": 2,
            "compUnifLie": false,
            "compDetect": -1,
            "callBS": false,
            "playerTrialScore": 2,
            "oppTrialScore": 8,
            "playerTotalScore": 307,
            "oppTotalScore": 338,
            "waitTime": 5275.751107504183,
            "responseTime": 2879,
            "catchQuestion": "How many red marbles did your opponent report drawing?",
            "catchKey": -1,
            "catchResponse": -1,
            "catchResponseTime": -1,
            "pseudoRound": false,
            "trialTime": 9416
        },
        {
            "exptPart": "trial",
            "trialNumber": 83,
            "roleCurrent": "bullshitter",
            "marblesSampled": 10,
            "asymm": true,
            "probBullshitterRed": 0.5,
            "probBullshitDetectorRed": 0.2,
            "probGlobal": 0.48125,
            "drawnRed": 7,
            "reportedDrawn": 7,
            "compLie": -1,
            "compUnifLie": false,
            "compDetect": 0.8221225472000002,
            "callBS": true,
            "playerTrialScore": 7,
            "oppTrialScore": -2,
            "playerTotalScore": 314,
            "oppTotalScore": 336,
            "waitTime": 2890.167054457541,
            "responseTime": 5557,
            "catchQuestion": "How many red marbles did your opponent report drawing?",
            "catchKey": -1,
            "catchResponse": -1,
            "catchResponseTime": -1,
            "pseudoRound": true,
            "trialTime": 13095
        },
        {
            "exptPart": "trial",
            "trialNumber": 84,
            "roleCurrent": "bullshitDetector",
            "marblesSampled": 10,
            "asymm": false,
            "probBullshitterRed": 0.2,
            "probBullshitDetectorRed": 0.2,
            "probGlobal": 0.2,
            "drawnRed": 1,
            "reportedDrawn": 2,
            "compLie": 2,
            "compUnifLie": false,
            "compDetect": -1,
            "callBS": true,
            "playerTrialScore": 5,
            "oppTrialScore": -5,
            "playerTotalScore": 319,
            "oppTotalScore": 331,
            "waitTime": 5942.365666542881,
            "responseTime": 2490,
            "catchQuestion": "How many red marbles did your opponent report drawing?",
            "catchKey": -1,
            "catchResponse": -1,
            "catchResponseTime": -1,
            "pseudoRound": false,
            "trialTime": 9857
        },
        {
            "exptPart": "trial",
            "trialNumber": 85,
            "roleCurrent": "bullshitter",
            "marblesSampled": 10,
            "asymm": false,
            "probBullshitterRed": 0.8,
            "probBullshitDetectorRed": 0.8,
            "probGlobal": 0.8,
            "drawnRed": 7,
            "reportedDrawn": 8,
            "compLie": -1,
            "compUnifLie": false,
            "compDetect": 0.5,
            "callBS": false,
            "playerTrialScore": 8,
            "oppTrialScore": 2,
            "playerTotalScore": 327,
            "oppTotalScore": 333,
            "waitTime": 2424.115963311282,
            "responseTime": 13545,
            "catchQuestion": "How many red marbles did your opponent report drawing?",
            "catchKey": -1,
            "catchResponse": -1,
            "catchResponseTime": -1,
            "pseudoRound": false,
            "trialTime": 20734
        },
        {
            "exptPart": "trial",
            "trialNumber": 86,
            "roleCurrent": "bullshitDetector",
            "marblesSampled": 10,
            "asymm": false,
            "probBullshitterRed": 0.2,
            "probBullshitDetectorRed": 0.2,
            "probGlobal": 0.2,
            "drawnRed": 0,
            "reportedDrawn": 1,
            "compLie": -1,
            "compUnifLie": false,
            "compDetect": 0.5,
            "callBS": false,
            "playerTrialScore": 9,
            "oppTrialScore": 1,
            "playerTotalScore": 336,
            "oppTotalScore": 334,
            "waitTime": 5566.481525756275,
            "responseTime": 2186,
            "catchQuestion": "How many red marbles did your opponent report drawing?",
            "catchKey": -1,
            "catchResponse": -1,
            "catchResponseTime": -1,
            "pseudoRound": true,
            "trialTime": 9330
        },
        {
            "exptPart": "trial",
            "trialNumber": 87,
            "roleCurrent": "bullshitter",
            "marblesSampled": 10,
            "asymm": false,
            "probBullshitterRed": 0.8,
            "probBullshitDetectorRed": 0.8,
            "probGlobal": 0.8,
            "drawnRed": 8,
            "reportedDrawn": 7,
            "compLie": -1,
            "compUnifLie": false,
            "compDetect": 0.19801011199999996,
            "callBS": false,
            "playerTrialScore": 7,
            "oppTrialScore": 3,
            "playerTotalScore": 343,
            "oppTotalScore": 337,
            "waitTime": 2886.936707163086,
            "responseTime": 7935,
            "catchQuestion": "How many red marbles did your opponent report drawing?",
            "catchKey": -1,
            "catchResponse": -1,
            "catchResponseTime": -1,
            "pseudoRound": false,
            "trialTime": 16227
        },
        {
            "exptPart": "trial",
            "trialNumber": 88,
            "roleCurrent": "bullshitDetector",
            "marblesSampled": 10,
            "asymm": true,
            "probBullshitterRed": 0.2,
            "probBullshitDetectorRed": 0.8,
            "probGlobal": 0.2375,
            "drawnRed": 2,
            "reportedDrawn": 9,
            "compLie": 9,
            "compUnifLie": false,
            "compDetect": -1,
            "callBS": false,
            "playerTrialScore": 1,
            "oppTrialScore": 9,
            "playerTotalScore": 344,
            "oppTotalScore": 346,
            "waitTime": 5493.521934097773,
            "responseTime": 5963,
            "catchQuestion": "How many red marbles did your opponent report drawing?",
            "catchKey": -1,
            "catchResponse": -1,
            "catchResponseTime": -1,
            "pseudoRound": false,
            "trialTime": 12951
        },
        {
            "exptPart": "trial",
            "trialNumber": 89,
            "roleCurrent": "bullshitter",
            "marblesSampled": 10,
            "asymm": true,
            "probBullshitterRed": 0.2,
            "probBullshitDetectorRed": 0.5,
            "probGlobal": 0.21875,
            "drawnRed": 2,
            "reportedDrawn": 3,
            "compLie": -1,
            "compUnifLie": false,
            "compDetect": 0.048828125,
            "callBS": false,
            "playerTrialScore": 3,
            "oppTrialScore": 7,
            "playerTotalScore": 347,
            "oppTotalScore": 353,
            "waitTime": 3087.2323350605247,
            "responseTime": 4237,
            "catchQuestion": "How many red marbles did your opponent report drawing?",
            "catchKey": -1,
            "catchResponse": -1,
            "catchResponseTime": -1,
            "pseudoRound": false,
            "trialTime": 11977
        },
        {
            "exptPart": "trial",
            "trialNumber": 90,
            "roleCurrent": "bullshitDetector",
            "marblesSampled": 10,
            "asymm": true,
            "probBullshitterRed": 0.5,
            "probBullshitDetectorRed": 0.2,
            "probGlobal": 0.48125,
            "drawnRed": 8,
            "reportedDrawn": 8,
            "compLie": 0,
            "compUnifLie": false,
            "compDetect": -1,
            "callBS": false,
            "playerTrialScore": 2,
            "oppTrialScore": 8,
            "playerTotalScore": 349,
            "oppTotalScore": 361,
            "waitTime": 5300.3734162098535,
            "responseTime": 2998,
            "catchQuestion": "How many red marbles did your opponent report drawing?",
            "catchKey": -1,
            "catchResponse": -1,
            "catchResponseTime": -1,
            "pseudoRound": false,
            "trialTime": 10192
        },
        {
            "exptPart": "trial",
            "trialNumber": 91,
            "roleCurrent": "bullshitter",
            "marblesSampled": 10,
            "asymm": true,
            "probBullshitterRed": 0.8,
            "probBullshitDetectorRed": 0.2,
            "probGlobal": 0.7625,
            "drawnRed": 5,
            "reportedDrawn": 4,
            "compLie": -1,
            "compUnifLie": false,
            "compDetect": 0.7894069760000003,
            "callBS": true,
            "playerTrialScore": -5,
            "oppTrialScore": 5,
            "playerTotalScore": 344,
            "oppTotalScore": 366,
            "waitTime": 2756.9911867804267,
            "responseTime": 6672,
            "catchQuestion": "How many red marbles did your opponent report drawing?",
            "catchKey": -1,
            "catchResponse": -1,
            "catchResponseTime": -1,
            "pseudoRound": false,
            "trialTime": 19003
        },
        {
            "exptPart": "trial",
            "trialNumber": 92,
            "roleCurrent": "bullshitDetector",
            "marblesSampled": 10,
            "asymm": true,
            "probBullshitterRed": 0.8,
            "probBullshitDetectorRed": 0.2,
            "probGlobal": 0.7625,
            "drawnRed": 9,
            "reportedDrawn": 7,
            "compLie": -1,
            "compUnifLie": false,
            "compDetect": 0.7894069760000003,
            "callBS": true,
            "playerTrialScore": 5,
            "oppTrialScore": -5,
            "playerTotalScore": 349,
            "oppTotalScore": 361,
            "waitTime": 5350.251199101507,
            "responseTime": 2500,
            "catchQuestion": "How many red marbles did your opponent report drawing?",
            "catchKey": -1,
            "catchResponse": -1,
            "catchResponseTime": -1,
            "pseudoRound": true,
            "trialTime": 9712
        },
        {
            "exptPart": "trial",
            "trialNumber": 93,
            "roleCurrent": "bullshitter",
            "marblesSampled": 10,
            "asymm": true,
            "probBullshitterRed": 0.8,
            "probBullshitDetectorRed": 0.2,
            "probGlobal": 0.7625,
            "drawnRed": 6,
            "reportedDrawn": 6,
            "compLie": -1,
            "compUnifLie": false,
            "compDetect": 0.8213361152000003,
            "callBS": true,
            "playerTrialScore": 6,
            "oppTrialScore": -1,
            "playerTotalScore": 355,
            "oppTotalScore": 360,
            "waitTime": 2171.6879905641294,
            "responseTime": 7875,
            "catchQuestion": "How many red marbles did your opponent report drawing?",
            "catchKey": -1,
            "catchResponse": -1,
            "catchResponseTime": -1,
            "pseudoRound": false,
            "trialTime": 14884
        },
        {
            "exptPart": "trial",
            "trialNumber": 94,
            "roleCurrent": "bullshitDetector",
            "marblesSampled": 10,
            "asymm": true,
            "probBullshitterRed": 0.2,
            "probBullshitDetectorRed": 0.8,
            "probGlobal": 0.2375,
            "drawnRed": 1,
            "reportedDrawn": 9,
            "compLie": 9,
            "compUnifLie": false,
            "compDetect": -1,
            "callBS": false,
            "playerTrialScore": 1,
            "oppTrialScore": 9,
            "playerTotalScore": 356,
            "oppTotalScore": 369,
            "waitTime": 5705.82838790346,
            "responseTime": 1837,
            "catchQuestion": "How many red marbles did your opponent report drawing?",
            "catchKey": -1,
            "catchResponse": -1,
            "catchResponseTime": -1,
            "pseudoRound": false,
            "trialTime": 8925
        },
        {
            "exptPart": "trial",
            "trialNumber": 95,
            "roleCurrent": "bullshitter",
            "marblesSampled": 10,
            "asymm": true,
            "probBullshitterRed": 0.5,
            "probBullshitDetectorRed": 0.8,
            "probGlobal": 0.51875,
            "drawnRed": 3,
            "reportedDrawn": 5,
            "compLie": -1,
            "compUnifLie": false,
            "compDetect": -0.091396864,
            "callBS": false,
            "playerTrialScore": 5,
            "oppTrialScore": 5,
            "playerTotalScore": 361,
            "oppTotalScore": 374,
            "waitTime": 2114.0921313348836,
            "responseTime": 6178,
            "catchQuestion": "How many red marbles did your opponent report drawing?",
            "catchKey": -1,
            "catchResponse": -1,
            "catchResponseTime": -1,
            "pseudoRound": true,
            "trialTime": 13414
        },
        {
            "exptPart": "trial",
            "trialNumber": 96,
            "roleCurrent": "bullshitDetector",
            "marblesSampled": 10,
            "asymm": true,
            "probBullshitterRed": 0.8,
            "probBullshitDetectorRed": 0.2,
            "probGlobal": 0.7625,
            "drawnRed": 9,
            "reportedDrawn": 9,
            "compLie": 3,
            "compUnifLie": false,
            "compDetect": -1,
            "callBS": true,
            "playerTrialScore": -4,
            "oppTrialScore": 9,
            "playerTotalScore": 357,
            "oppTotalScore": 383,
            "waitTime": 5171.931499974957,
            "responseTime": 2302,
            "catchQuestion": "How many red marbles did your opponent report drawing?",
            "catchKey": -1,
            "catchResponse": -1,
            "catchResponseTime": -1,
            "pseudoRound": false,
            "trialTime": 9011
        },
        {
            "exptPart": "trial",
            "trialNumber": 97,
            "roleCurrent": "bullshitter",
            "marblesSampled": 10,
            "asymm": true,
            "probBullshitterRed": 0.2,
            "probBullshitDetectorRed": 0.5,
            "probGlobal": 0.21875,
            "drawnRed": 5,
            "reportedDrawn": 5,
            "compLie": -1,
            "compUnifLie": false,
            "compDetect": 0.5,
            "callBS": false,
            "playerTrialScore": 5,
            "oppTrialScore": 5,
            "playerTotalScore": 362,
            "oppTotalScore": 388,
            "waitTime": 2446.3522524133314,
            "responseTime": 5275,
            "catchQuestion": "How many red marbles did your opponent report drawing?",
            "catchKey": -1,
            "catchResponse": -1,
            "catchResponseTime": -1,
            "pseudoRound": true,
            "trialTime": 12054
        },
        {
            "exptPart": "trial",
            "trialNumber": 98,
            "roleCurrent": "bullshitDetector",
            "marblesSampled": 10,
            "asymm": true,
            "probBullshitterRed": 0.8,
            "probBullshitDetectorRed": 0.2,
            "probGlobal": 0.7625,
            "drawnRed": 8,
            "reportedDrawn": 0,
            "compLie": -1,
            "compUnifLie": false,
            "compDetect": 0.5,
            "callBS": false,
            "playerTrialScore": 10,
            "oppTrialScore": 0,
            "playerTotalScore": 372,
            "oppTotalScore": 388,
            "waitTime": 6645.6529883313915,
            "responseTime": 5202,
            "catchQuestion": "How many red marbles did your opponent report drawing?",
            "catchKey": -1,
